"STUDYID","USUBJID","SUBJID","RFSTDTC","RFENDTC","RFXSTDTC","RFXENDTC","RFICDTC","RFPENDTC","DTHDTC","DTHFL","SITEID","BRTHDTC","AGE","AGEU","SEX","RACE","ETHNIC","ARMCD","ARM","ACTARMCD","ACTARM","COUNTRY","DMDTC","DMDY","ARMNRS","ACTARMUD","TRT01P","TRT01A","TRTSDTM","TRTSTMF","TRTEDTM","TRTETMF","TRTSDT","TRTEDT","ITTFL","EOSDT","EOSSTT","DCSREAS","DCSREASP","RANDDT","BRTHDT","AAGE","AAGEU","AGEGR9","AGEGR9N","DTHDT","SAFFL","LSTAVLDT","LALVSEQ","LALVDOM"
"CDISCPILOT01","01-701-1015","1015","2014-01-02","2014-07-02","2014-01-02","2014-07-02",,"2014-07-02T11:45",,,"701","1950-12-26",63,"YEARS","F","WHITE","HISPANIC OR LATINO","Pbo","Placebo","Pbo","Placebo","USA","2013-12-26",-7,,,"Placebo","Placebo",2014-01-02,"H",2014-07-02,"H",2014-01-02,2014-07-02,"Y",2014-07-02,"COMPLETED",,,2014-01-02,1950-12-26,63,"YEARS",">50",3,,"Y",2014-07-02,,"ADSL"
"CDISCPILOT01","01-701-1023","1023","2012-08-05","2012-09-02","2012-08-05","2012-09-01",,"2013-02-18",,,"701","1948-07-22",64,"YEARS","M","WHITE","HISPANIC OR LATINO","Pbo","Placebo","Pbo","Placebo","USA","2012-07-22",-14,,,"Placebo","Placebo",2012-08-05,"H",2012-09-01,"H",2012-08-05,2012-09-01,"Y",2012-09-02,"DISCONTINUED","ADVERSE EVENT","ADVERSE EVENT",2012-08-05,1948-07-22,64,"YEARS",">50",3,,"Y",2013-02-18,71,"VS"
"CDISCPILOT01","01-701-1028","1028","2013-07-19","2014-01-14","2013-07-19","2014-01-14",,"2014-01-14T11:10",,,"701","1942-07-11",71,"YEARS","M","WHITE","NOT HISPANIC OR LATINO","Xan_Hi","Xanomeline High Dose","Xan_Hi","Xanomeline High Dose","USA","2013-07-11",-8,,,"Xanomeline High Dose","Xanomeline High Dose",2013-07-19,"H",2014-01-14,"H",2013-07-19,2014-01-14,"Y",2014-01-14,"COMPLETED",,,2013-07-19,1942-07-11,71,"YEARS",">50",3,,"Y",2014-01-14,,"ADSL"
"CDISCPILOT01","01-701-1033","1033","2014-03-18","2014-04-14","2014-03-18","2014-03-31",,"2014-09-15",,,"701","1940-03-10",74,"YEARS","M","WHITE","NOT HISPANIC OR LATINO","Xan_Lo","Xanomeline Low Dose","Xan_Lo","Xanomeline Low Dose","USA","2014-03-10",-8,,,"Xanomeline Low Dose","Xanomeline Low Dose",2014-03-18,"H",2014-03-31,"H",2014-03-18,2014-03-31,"Y",2014-04-14,"DISCONTINUED","STUDY TERMINATED BY SPONSOR","SPONSOR DECISION (STUDY OR PATIENT DISCONTINUED BY THE SPONSOR)",2014-03-18,1940-03-10,74,"YEARS",">50",3,,"Y",2014-09-15,71,"VS"
"CDISCPILOT01","01-701-1034","1034","2014-07-01","2014-12-30","2014-07-01","2014-12-30",,"2014-12-30T09:50",,,"701","1937-06-24",77,"YEARS","F","WHITE","NOT HISPANIC OR LATINO","Xan_Hi","Xanomeline High Dose","Xan_Hi","Xanomeline High Dose","USA","2014-06-24",-7,,,"Xanomeline High Dose","Xanomeline High Dose",2014-07-01,"H",2014-12-30,"H",2014-07-01,2014-12-30,"Y",2014-12-30,"COMPLETED",,,2014-07-01,1937-06-24,77,"YEARS",">50",3,,"Y",2014-12-30,,"ADSL"
"CDISCPILOT01","01-701-1047","1047","2013-02-12","2013-03-29","2013-02-12","2013-03-09",,"2013-07-28",,,"701","1928-01-22",85,"YEARS","F","WHITE","NOT HISPANIC OR LATINO","Pbo","Placebo","Pbo","Placebo","USA","2013-01-22",-21,,,"Placebo","Placebo",2013-02-12,"H",2013-03-09,"H",2013-02-12,2013-03-09,"Y",2013-03-29,"DISCONTINUED","ADVERSE EVENT","ADVERSE EVENT",2013-02-12,1928-01-22,85,"YEARS",">50",3,,"Y",2013-07-28,80,"VS"
"CDISCPILOT01","01-701-1057","1057",,,,,,"2013-12-27",,,"701","1954-12-20",59,"YEARS","F","WHITE","HISPANIC OR LATINO","Scrnfail","Screen Failure","Scrnfail","Screen Failure","USA","2013-12-20",,"SCREEN FAILURE",,"Screen Failure","Screen Failure",,,,,,,"Y",,,,,,1954-12-20,,,">50",3,,"N",2013-12-20,1,"DS"
"CDISCPILOT01","01-701-1097","1097","2014-01-01","2014-07-09","2014-01-01","2014-07-09",,"2014-07-09T09:39",,,"701","1945-12-23",68,"YEARS","M","WHITE","NOT HISPANIC OR LATINO","Xan_Lo","Xanomeline Low Dose","Xan_Lo","Xanomeline Low Dose","USA","2013-12-23",-9,,,"Xanomeline Low Dose","Xanomeline Low Dose",2014-01-01,"H",2014-07-09,"H",2014-01-01,2014-07-09,"Y",2014-07-09,"COMPLETED",,,2014-01-01,1945-12-23,68,"YEARS",">50",3,,"Y",2014-07-09,,"ADSL"
"CDISCPILOT01","01-701-1111","1111","2012-09-07","2012-09-17","2012-09-07","2012-09-16",,"2013-02-22",,,"701","1931-08-25",81,"YEARS","F","WHITE","NOT HISPANIC OR LATINO","Xan_Lo","Xanomeline Low Dose","Xan_Lo","Xanomeline Low Dose","USA","2012-08-25",-13,,,"Xanomeline Low Dose","Xanomeline Low Dose",2012-09-07,"H",2012-09-16,"H",2012-09-07,2012-09-16,"Y",2012-09-17,"DISCONTINUED","ADVERSE EVENT","ADVERSE EVENT",2012-09-07,1931-08-25,81,"YEARS",">50",3,,"Y",2013-02-22,51,"VS"
"CDISCPILOT01","01-701-1115","1115","2012-11-30","2013-01-23","2012-11-30","2013-01-23",,"2013-05-20",,,"701","1928-11-23",84,"YEARS","M","WHITE","NOT HISPANIC OR LATINO","Xan_Lo","Xanomeline Low Dose","Xan_Lo","Xanomeline Low Dose","USA","2012-11-23",-7,,,"Xanomeline Low Dose","Xanomeline Low Dose",2012-11-30,"H",2013-01-23,"H",2012-11-30,2013-01-23,"Y",2013-01-23,"DISCONTINUED","ADVERSE EVENT","ADVERSE EVENT",2012-11-30,1928-11-23,84,"YEARS",">50",3,,"Y",2013-05-20,101,"VS"
"CDISCPILOT01","01-701-1118","1118","2014-03-12","2014-09-09","2014-03-12","2014-09-09",,"2014-09-09T13:28",,,"701","1962-02-27",52,"YEARS","M","WHITE","NOT HISPANIC OR LATINO","Pbo","Placebo","Pbo","Placebo","USA","2014-02-27",-13,,,"Placebo","Placebo",2014-03-12,"H",2014-09-09,"H",2014-03-12,2014-09-09,"Y",2014-09-09,"COMPLETED",,,2014-03-12,1962-02-27,52,"YEARS",">50",3,,"Y",2014-09-09,,"ADSL"
"CDISCPILOT01","01-701-1130","1130","2014-02-15","2014-08-16","2014-02-15","2014-08-16",,"2014-08-16T13:10",,,"701","1930-02-09",84,"YEARS","M","WHITE","NOT HISPANIC OR LATINO","Pbo","Placebo","Pbo","Placebo","USA","2014-02-09",-6,,,"Placebo","Placebo",2014-02-15,"H",2014-08-16,"H",2014-02-15,2014-08-16,"Y",2014-08-16,"COMPLETED",,,2014-02-15,1930-02-09,84,"YEARS",">50",3,,"Y",2014-08-16,,"ADSL"
"CDISCPILOT01","01-701-1133","1133","2012-10-28","2013-04-29","2012-10-28","2013-04-28",,"2013-04-29T10:13",,,"701","1931-10-23",81,"YEARS","F","WHITE","NOT HISPANIC OR LATINO","Xan_Hi","Xanomeline High Dose","Xan_Hi","Xanomeline High Dose","USA","2012-10-23",-5,,,"Xanomeline High Dose","Xanomeline High Dose",2012-10-28,"H",2013-04-28,"H",2012-10-28,2013-04-28,"Y",2013-04-29,"COMPLETED",,,2012-10-28,1931-10-23,81,"YEARS",">50",3,,"Y",2013-04-29,152,"VS"
"CDISCPILOT01","01-701-1145","1145",,,,,,"2013-09-19",,,"701","1956-09-05",57,"YEARS","F","WHITE","NOT HISPANIC OR LATINO","Scrnfail","Screen Failure","Scrnfail","Screen Failure","USA","2013-09-05",,"SCREEN FAILURE",,"Screen Failure","Screen Failure",,,,,,,"Y",,,,,,1956-09-05,,,">50",3,,"N",2013-09-05,1,"DS"
"CDISCPILOT01","01-701-1146","1146","2013-05-20","2013-06-30","2013-05-20","2013-06-26",,"2013-07-15",,,"701","1938-05-07",75,"YEARS","F","WHITE","NOT HISPANIC OR LATINO","Xan_Hi","Xanomeline High Dose","Xan_Hi","Xanomeline High Dose","USA","2013-05-07",-13,,,"Xanomeline High Dose","Xanomeline High Dose",2013-05-20,"H",2013-06-26,"H",2013-05-20,2013-06-26,"Y",2013-06-30,"DISCONTINUED","ADVERSE EVENT","ADVERSE EVENT",2013-05-20,1938-05-07,75,"YEARS",">50",3,,"Y",2013-06-30,86,"VS"
"CDISCPILOT01","01-701-1148","1148","2013-08-23","2014-02-20","2013-08-23","2014-02-20",,"2014-02-20T15:07",,,"701","1956-08-14",57,"YEARS","M","WHITE","NOT HISPANIC OR LATINO","Xan_Hi","Xanomeline High Dose","Xan_Hi","Xanomeline High Dose","USA","2013-08-14",-9,,,"Xanomeline High Dose","Xanomeline High Dose",2013-08-23,"H",2014-02-20,"H",2013-08-23,2014-02-20,"Y",2014-02-20,"COMPLETED",,,2013-08-23,1956-08-14,57,"YEARS",">50",3,,"Y",2014-02-20,,"ADSL"
"CDISCPILOT01","01-701-1153","1153","2013-09-23","2014-04-01","2013-09-23","2014-03-16",,"2014-04-01T14:25",,,"701","1934-09-06",79,"YEARS","F","WHITE","NOT HISPANIC OR LATINO","Pbo","Placebo","Pbo","Placebo","USA","2013-09-06",-17,,,"Placebo","Placebo",2013-09-23,"H",2014-03-16,"H",2013-09-23,2014-03-16,"Y",2014-04-01,"COMPLETED",,,2013-09-23,1934-09-06,79,"YEARS",">50",3,,"Y",2014-04-01,152,"VS"
"CDISCPILOT01","01-701-1162","1162",,,,,,"2013-04-18",,,"701","1931-04-18",82,"YEARS","F","WHITE","NOT HISPANIC OR LATINO","Scrnfail","Screen Failure","Scrnfail","Screen Failure","USA","2013-04-18",,"SCREEN FAILURE",,"Screen Failure","Screen Failure",,,,,,,"Y",,,,,,1931-04-18,,,">50",3,,"N",2013-04-18,1,"DS"
"CDISCPILOT01","01-701-1176","1176",,,,,,"2012-09-30",,,"701","1950-09-30",62,"YEARS","F","AMERICAN INDIAN OR ALASKA NATIVE","NOT HISPANIC OR LATINO","Scrnfail","Screen Failure","Scrnfail","Screen Failure","USA","2012-09-30",,"SCREEN FAILURE",,"Screen Failure","Screen Failure",,,,,,,"Y",,,,,,1950-09-30,,,">50",3,,"N",2012-09-30,1,"DS"
"CDISCPILOT01","01-701-1180","1180","2013-02-12","2013-03-23","2013-02-12","2013-03-18",,"2013-04-07",,,"701","1957-01-28",56,"YEARS","M","WHITE","NOT HISPANIC OR LATINO","Xan_Hi","Xanomeline High Dose","Xan_Hi","Xanomeline High Dose","USA","2013-01-28",-15,,,"Xanomeline High Dose","Xanomeline High Dose",2013-02-12,"H",2013-03-18,"H",2013-02-12,2013-03-18,"Y",2013-03-23,"DISCONTINUED","ADVERSE EVENT","ADVERSE EVENT",2013-02-12,1957-01-28,56,"YEARS",">50",3,,"Y",2013-03-23,86,"VS"
"CDISCPILOT01","01-701-1181","1181","2013-12-05","2013-12-12","2013-12-05","2013-12-09",,"2014-05-23",,,"701","1934-11-26",79,"YEARS","F","WHITE","NOT HISPANIC OR LATINO","Xan_Hi","Xanomeline High Dose","Xan_Lo","Xanomeline Low Dose","USA","2013-11-26",-9,,,"Xanomeline High Dose","Xanomeline Low Dose",2013-12-05,"H",2013-12-09,"H",2013-12-05,2013-12-09,"Y",2013-12-12,"DISCONTINUED","ADVERSE EVENT","ADVERSE EVENT",2013-12-05,1934-11-26,79,"YEARS",">50",3,,"Y",2014-05-23,51,"VS"
"CDISCPILOT01","01-701-1188","1188","2013-02-15","2013-03-25","2013-02-15","2013-03-24",,"2013-08-04",,,"701","1942-02-03",71,"YEARS","M","WHITE","NOT HISPANIC OR LATINO","Xan_Lo","Xanomeline Low Dose","Xan_Lo","Xanomeline Low Dose","USA","2013-02-03",-12,,,"Xanomeline Low Dose","Xanomeline Low Dose",2013-02-15,"H",2013-03-24,"H",2013-02-15,2013-03-24,"Y",2013-03-25,"DISCONTINUED","ADVERSE EVENT","ADVERSE EVENT",2013-02-15,1942-02-03,71,"YEARS",">50",3,,"Y",2013-08-04,91,"VS"
"CDISCPILOT01","01-701-1192","1192","2012-07-22","2013-01-20","2012-07-22","2013-01-20",,"2013-01-20T15:47",,,"701","1932-07-08",80,"YEARS","F","WHITE","NOT HISPANIC OR LATINO","Xan_Lo","Xanomeline Low Dose","Xan_Lo","Xanomeline Low Dose","USA","2012-07-08",-14,,,"Xanomeline Low Dose","Xanomeline Low Dose",2012-07-22,"H",2013-01-20,"H",2012-07-22,2013-01-20,"Y",2013-01-20,"COMPLETED",,,2012-07-22,1932-07-08,80,"YEARS",">50",3,,"Y",2013-01-20,,"ADSL"
"CDISCPILOT01","01-701-1203","1203","2013-02-02","2013-08-03","2013-02-02","2013-08-03",,"2013-08-03T10:10",,,"701","1932-01-25",81,"YEARS","F","BLACK OR AFRICAN AMERICAN","NOT HISPANIC OR LATINO","Pbo","Placebo","Pbo","Placebo","USA","2013-01-25",-8,,,"Placebo","Placebo",2013-02-02,"H",2013-08-03,"H",2013-02-02,2013-08-03,"Y",2013-08-03,"COMPLETED",,,2013-02-02,1932-01-25,81,"YEARS",">50",3,,"Y",2013-08-03,,"ADSL"
"CDISCPILOT01","01-701-1211","1211","2012-11-15","2013-01-14","2012-11-15","2013-01-12",,"2013-01-14","2013-01-14","Y","701","1936-10-30",76,"YEARS","F","WHITE","NOT HISPANIC OR LATINO","Xan_Lo","Xanomeline Low Dose","Xan_Lo","Xanomeline Low Dose","USA","2012-10-30",-16,,,"Xanomeline Low Dose","Xanomeline Low Dose",2012-11-15,"H",2013-01-12,"H",2012-11-15,2013-01-12,"Y",2013-01-14,"DISCONTINUED","DEATH","DEATH",2012-11-15,1936-10-30,76,"YEARS",">50",3,2013-01-14,"Y",2013-01-14,9,"AE"
"CDISCPILOT01","01-701-1234","1234","2013-03-30","2013-09-22","2013-03-30","2013-09-22",,"2013-09-22T09:25",,,"701","1944-03-20",69,"YEARS","M","WHITE","NOT HISPANIC OR LATINO","Pbo","Placebo","Pbo","Placebo","USA","2013-03-20",-10,,,"Placebo","Placebo",2013-03-30,"H",2013-09-22,"H",2013-03-30,2013-09-22,"Y",2013-09-22,"COMPLETED",,,2013-03-30,1944-03-20,69,"YEARS",">50",3,,"Y",2013-09-22,,"ADSL"
"CDISCPILOT01","01-701-1239","1239","2014-01-11","2014-07-11","2014-01-11","2014-07-10",,"2014-07-11T15:40",,,"701","1957-12-28",56,"YEARS","M","WHITE","HISPANIC OR LATINO","Xan_Hi","Xanomeline High Dose","Xan_Hi","Xanomeline High Dose","USA","2013-12-28",-14,,,"Xanomeline High Dose","Xanomeline High Dose",2014-01-11,"H",2014-07-10,"H",2014-01-11,2014-07-10,"Y",2014-07-11,"COMPLETED",,,2014-01-11,1957-12-28,56,"YEARS",">50",3,,"Y",2014-07-11,152,"VS"
"CDISCPILOT01","01-701-1240","1240",,,,,,"2013-09-24",,,"701","1956-09-22",57,"YEARS","F","BLACK OR AFRICAN AMERICAN","NOT HISPANIC OR LATINO","Scrnfail","Screen Failure","Scrnfail","Screen Failure","USA","2013-09-22",,"SCREEN FAILURE",,"Screen Failure","Screen Failure",,,,,,,"Y",,,,,,1956-09-22,,,">50",3,,"N",2013-09-22,1,"DS"
"CDISCPILOT01","01-701-1275","1275","2014-02-07","2014-06-14","2014-02-07","2014-05-31",,"2014-06-14T12:35",,,"701","1953-01-25",61,"YEARS","M","AMERICAN INDIAN OR ALASKA NATIVE","NOT HISPANIC OR LATINO","Xan_Hi","Xanomeline High Dose","Xan_Hi","Xanomeline High Dose","USA","2014-01-25",-13,,,"Xanomeline High Dose","Xanomeline High Dose",2014-02-07,"H",2014-05-31,"H",2014-02-07,2014-05-31,"Y",2014-06-14,"DISCONTINUED","WITHDRAWAL BY SUBJECT","WITHDRAW CONSENT",2014-02-07,1953-01-25,61,"YEARS",">50",3,,"Y",2014-06-14,119,"VS"
"CDISCPILOT01","01-701-1287","1287","2014-01-25","2014-07-26","2014-01-25","2014-07-26",,"2014-07-26T13:15",,,"701","1958-01-17",56,"YEARS","F","WHITE","HISPANIC OR LATINO","Xan_Hi","Xanomeline High Dose","Xan_Hi","Xanomeline High Dose","USA","2014-01-17",-8,,,"Xanomeline High Dose","Xanomeline High Dose",2014-01-25,"H",2014-07-26,"H",2014-01-25,2014-07-26,"Y",2014-07-26,"COMPLETED",,,2014-01-25,1958-01-17,56,"YEARS",">50",3,,"Y",2014-07-26,,"ADSL"
"CDISCPILOT01","01-701-1294","1294","2013-03-24","2013-06-14","2013-03-24","2013-06-14",,"2013-10-08",,,"701","1946-03-17",67,"YEARS","M","WHITE","NOT HISPANIC OR LATINO","Xan_Lo","Xanomeline Low Dose","Xan_Lo","Xanomeline Low Dose","USA","2013-03-17",-7,,,"Xanomeline Low Dose","Xanomeline Low Dose",2013-03-24,"H",2013-06-14,"H",2013-03-24,2013-06-14,"Y",2013-06-14,"DISCONTINUED","ADVERSE EVENT","ADVERSE EVENT",2013-03-24,1946-03-17,67,"YEARS",">50",3,,"Y",2013-10-08,111,"VS"
"CDISCPILOT01","01-701-1302","1302","2013-08-29","2013-11-05","2013-08-29","2013-11-05",,"2014-02-13",,,"701","1952-08-20",61,"YEARS","M","WHITE","NOT HISPANIC OR LATINO","Xan_Hi","Xanomeline High Dose","Xan_Hi","Xanomeline High Dose","USA","2013-08-20",-9,,,"Xanomeline High Dose","Xanomeline High Dose",2013-08-29,"H",2013-11-05,"H",2013-08-29,2013-11-05,"Y",2013-11-05,"DISCONTINUED","ADVERSE EVENT","ADVERSE EVENT",2013-08-29,1952-08-20,61,"YEARS",">50",3,,"Y",2014-02-13,111,"VS"
"CDISCPILOT01","01-701-1307","1307",,,,,,"2014-01-02",,,"701","1933-12-08",80,"YEARS","F","WHITE","NOT HISPANIC OR LATINO","Scrnfail","Screen Failure","Scrnfail","Screen Failure","USA","2013-12-08",,"SCREEN FAILURE",,"Screen Failure","Screen Failure",,,,,,,"Y",,,,,,1933-12-08,,,">50",3,,"N",2013-12-08,1,"DS"
"CDISCPILOT01","01-701-1317","1317","2014-05-22","2014-11-20","2014-05-22","2014-11-20",,"2014-11-20T11:54",,,"701","1946-05-10",68,"YEARS","M","WHITE","NOT HISPANIC OR LATINO","Xan_Lo","Xanomeline Low Dose","Xan_Lo","Xanomeline Low Dose","USA","2014-05-10",-12,,,"Xanomeline Low Dose","Xanomeline Low Dose",2014-05-22,"H",2014-11-20,"H",2014-05-22,2014-11-20,"Y",2014-11-20,"COMPLETED",,,2014-05-22,1946-05-10,68,"YEARS",">50",3,,"Y",2014-11-20,,"ADSL"
"CDISCPILOT01","01-701-1324","1324","2012-10-02","2013-04-02","2012-10-02","2013-04-02",,"2013-04-02T11:35",,,"701","1933-09-16",79,"YEARS","M","WHITE","NOT HISPANIC OR LATINO","Xan_Lo","Xanomeline Low Dose","Xan_Lo","Xanomeline Low Dose","USA","2012-09-16",-16,,,"Xanomeline Low Dose","Xanomeline Low Dose",2012-10-02,"H",2013-04-02,"H",2012-10-02,2013-04-02,"Y",2013-04-02,"COMPLETED",,,2012-10-02,1933-09-16,79,"YEARS",">50",3,,"Y",2013-04-02,,"ADSL"
"CDISCPILOT01","01-701-1341","1341","2013-01-05","2013-02-07","2013-01-05","2013-01-26",,"2013-02-21",,,"701","1961-12-22",51,"YEARS","M","WHITE","NOT HISPANIC OR LATINO","Xan_Lo","Xanomeline Low Dose","Xan_Lo","Xanomeline Low Dose","USA","2012-12-22",-14,,,"Xanomeline Low Dose","Xanomeline Low Dose",2013-01-05,"H",2013-01-26,"H",2013-01-05,2013-01-26,"Y",2013-02-07,"DISCONTINUED","ADVERSE EVENT","ADVERSE EVENT",2013-01-05,1961-12-22,51,"YEARS",">50",3,,"Y",2013-02-07,65,"VS"
"CDISCPILOT01","01-701-1345","1345","2013-10-08","2014-03-18","2013-10-08","2014-03-18",,"2014-03-18T14:12",,,"701","1950-10-01",63,"YEARS","F","WHITE","NOT HISPANIC OR LATINO","Pbo","Placebo","Pbo","Placebo","USA","2013-10-01",-7,,,"Placebo","Placebo",2013-10-08,"H",2014-03-18,"H",2013-10-08,2014-03-18,"Y",2014-03-18,"DISCONTINUED","STUDY TERMINATED BY SPONSOR","SPONSOR DECISION (STUDY OR PATIENT DISCONTINUED BY THE SPONSOR)",2013-10-08,1950-10-01,63,"YEARS",">50",3,,"Y",2014-03-18,,"ADSL"
"CDISCPILOT01","01-701-1356","1356",,,,,,"2014-05-28",,,"701","1960-04-01",54,"YEARS","F","WHITE","HISPANIC OR LATINO","Scrnfail","Screen Failure","Scrnfail","Screen Failure","USA","2014-04-01",,"SCREEN FAILURE",,"Screen Failure","Screen Failure",,,,,,,"Y",,,,,,1960-04-01,,,">50",3,,"N",2014-04-01,1,"DS"
"CDISCPILOT01","01-701-1360","1360","2013-07-31","2013-08-14","2013-07-31","2013-08-05",,"2014-02-11",,,"701","1946-07-24",67,"YEARS","M","WHITE","NOT HISPANIC OR LATINO","Xan_Hi","Xanomeline High Dose","Xan_Lo","Xanomeline Low Dose","USA","2013-07-24",-7,,,"Xanomeline High Dose","Xanomeline Low Dose",2013-07-31,"H",2013-08-05,"H",2013-07-31,2013-08-05,"Y",2013-08-14,"DISCONTINUED","PHYSICIAN DECISION","PMD DECISION DUE TO AE'S",2013-07-31,1946-07-24,67,"YEARS",">50",3,,"Y",2014-02-11,51,"VS"
"CDISCPILOT01","01-701-1363","1363","2013-05-30","2013-11-27","2013-05-30","2013-11-27",,"2013-11-27T10:00",,,"701","1932-05-20",81,"YEARS","F","BLACK OR AFRICAN AMERICAN","NOT HISPANIC OR LATINO","Pbo","Placebo","Pbo","Placebo","USA","2013-05-20",-10,,,"Placebo","Placebo",2013-05-30,"H",2013-11-27,"H",2013-05-30,2013-11-27,"Y",2013-11-27,"COMPLETED",,,2013-05-30,1932-05-20,81,"YEARS",">50",3,,"Y",2013-11-27,,"ADSL"
"CDISCPILOT01","01-701-1369","1369",,,,,,"2013-09-30",,,"701","1939-09-18",74,"YEARS","M","WHITE","NOT HISPANIC OR LATINO","Scrnfail","Screen Failure","Scrnfail","Screen Failure","USA","2013-09-18",,"SCREEN FAILURE",,"Screen Failure","Screen Failure",,,,,,,"Y",,,,,,1939-09-18,,,">50",3,,"N",2013-09-18,1,"DS"
"CDISCPILOT01","01-701-1383","1383","2013-02-04","2013-08-06","2013-02-04","2013-08-06",,"2013-08-06T12:00",,,"701","1941-01-22",72,"YEARS","F","WHITE","NOT HISPANIC OR LATINO","Xan_Hi","Xanomeline High Dose","Xan_Hi","Xanomeline High Dose","USA","2013-01-22",-13,,,"Xanomeline High Dose","Xanomeline High Dose",2013-02-04,"H",2013-08-06,"H",2013-02-04,2013-08-06,"Y",2013-08-06,"COMPLETED",,,2013-02-04,1941-01-22,72,"YEARS",">50",3,,"Y",2013-08-06,,"ADSL"
"CDISCPILOT01","01-701-1386","1386",,,,,,"2014-01-07",,,"701","1942-12-28",71,"YEARS","M","WHITE","NOT HISPANIC OR LATINO","Scrnfail","Screen Failure","Scrnfail","Screen Failure","USA","2013-12-28",,"SCREEN FAILURE",,"Screen Failure","Screen Failure",,,,,,,"Y",,,,,,1942-12-28,,,">50",3,,"N",2013-12-28,1,"DS"
"CDISCPILOT01","01-701-1387","1387","2014-03-12","2014-03-25","2014-03-12","2014-03-25",,"2014-08-27",,,"701","1927-02-23",87,"YEARS","F","WHITE","NOT HISPANIC OR LATINO","Pbo","Placebo","Pbo","Placebo","USA","2014-02-23",-17,,,"Placebo","Placebo",2014-03-12,"H",2014-03-25,"H",2014-03-12,2014-03-25,"Y",2014-03-25,"DISCONTINUED","PROTOCOL VIOLATION","PROTOCOL VIOLATION",2014-03-12,1927-02-23,87,"YEARS",">50",3,,"Y",2014-08-27,51,"VS"
"CDISCPILOT01","01-701-1392","1392","2012-10-28","2013-04-28","2012-10-28","2013-04-28",,"2013-04-28T11:30",,,"701","1934-10-17",78,"YEARS","M","WHITE","NOT HISPANIC OR LATINO","Pbo","Placebo","Pbo","Placebo","USA","2012-10-17",-11,,,"Placebo","Placebo",2012-10-28,"H",2013-04-28,"H",2012-10-28,2013-04-28,"Y",2013-04-28,"COMPLETED",,,2012-10-28,1934-10-17,78,"YEARS",">50",3,,"Y",2013-04-28,,"ADSL"
"CDISCPILOT01","01-701-1411","1411",,,,,,"2012-11-24",,,"701","1936-11-14",76,"YEARS","M","BLACK OR AFRICAN AMERICAN","NOT HISPANIC OR LATINO","Scrnfail","Screen Failure","Scrnfail","Screen Failure","USA","2012-11-14",,"SCREEN FAILURE",,"Screen Failure","Screen Failure",,,,,,,"Y",,,,,,1936-11-14,,,">50",3,,"N",2012-11-14,1,"DS"
"CDISCPILOT01","01-701-1415","1415","2013-09-23","2014-03-24","2013-09-23","2014-03-24",,"2014-03-24T12:34",,,"701","1928-09-15",85,"YEARS","M","WHITE","NOT HISPANIC OR LATINO","Pbo","Placebo","Pbo","Placebo","USA","2013-09-15",-8,,,"Placebo","Placebo",2013-09-23,"H",2014-03-24,"H",2013-09-23,2014-03-24,"Y",2014-03-24,"COMPLETED",,,2013-09-23,1928-09-15,85,"YEARS",">50",3,,"Y",2014-03-24,,"ADSL"
"CDISCPILOT01","01-701-1429","1429","2013-03-19","2013-04-30","2013-03-19","2013-04-30",,"2013-04-30T12:22",,,"701","1929-02-25",84,"YEARS","F","WHITE","NOT HISPANIC OR LATINO","Xan_Lo","Xanomeline Low Dose","Xan_Lo","Xanomeline Low Dose","USA","2013-02-25",-22,,,"Xanomeline Low Dose","Xanomeline Low Dose",2013-03-19,"H",2013-04-30,"H",2013-03-19,2013-04-30,"Y",2013-04-30,"DISCONTINUED","WITHDRAWAL BY SUBJECT","WITHDRAW CONSENT DUE TO COMPLIANCY ISSUE",2013-03-19,1929-02-25,84,"YEARS",">50",3,,"Y",2013-04-30,,"ADSL"
"CDISCPILOT01","01-701-1440","1440","2013-08-08","2014-02-05","2013-08-08","2014-02-05",,"2014-02-05T11:25",,,"701","1943-07-24",70,"YEARS","M","WHITE","NOT HISPANIC OR LATINO","Pbo","Placebo","Pbo","Placebo","USA","2013-07-24",-15,,,"Placebo","Placebo",2013-08-08,"H",2014-02-05,"H",2013-08-08,2014-02-05,"Y",2014-02-05,"COMPLETED",,,2013-08-08,1943-07-24,70,"YEARS",">50",3,,"Y",2014-02-05,,"ADSL"
"CDISCPILOT01","01-701-1442","1442","2013-10-26","2014-04-26","2013-10-26","2014-04-26",,"2014-04-26T10:00",,,"701","1956-10-17",57,"YEARS","F","BLACK OR AFRICAN AMERICAN","NOT HISPANIC OR LATINO","Xan_Lo","Xanomeline Low Dose","Xan_Lo","Xanomeline Low Dose","USA","2013-10-17",-9,,,"Xanomeline Low Dose","Xanomeline Low Dose",2013-10-26,"H",2014-04-26,"H",2013-10-26,2014-04-26,"Y",2014-04-26,"COMPLETED",,,2013-10-26,1956-10-17,57,"YEARS",">50",3,,"Y",2014-04-26,,"ADSL"
"CDISCPILOT01","01-701-1444","1444","2013-01-05","2013-02-13","2013-01-05","2013-02-12",,"2013-06-20",,,"701","1949-12-31",63,"YEARS","M","WHITE","HISPANIC OR LATINO","Xan_Hi","Xanomeline High Dose","Xan_Hi","Xanomeline High Dose","USA","2012-12-31",-5,,,"Xanomeline High Dose","Xanomeline High Dose",2013-01-05,"H",2013-02-12,"H",2013-01-05,2013-02-12,"Y",2013-02-13,"DISCONTINUED","ADVERSE EVENT","ADVERSE EVENT",2013-01-05,1949-12-31,63,"YEARS",">50",3,,"Y",2013-06-20,91,"VS"
"CDISCPILOT01","01-702-1082","1082","2013-07-26","2013-11-17","2013-07-26","2013-10-13",,"2013-11-17T12:20",,,"702","1929-07-03",84,"YEARS","F","WHITE","NOT HISPANIC OR LATINO","Xan_Lo","Xanomeline Low Dose","Xan_Lo","Xanomeline Low Dose","USA","2013-07-03",-23,,,"Xanomeline Low Dose","Xanomeline Low Dose",2013-07-26,"H",2013-10-13,"H",2013-07-26,2013-10-13,"Y",2013-11-17,"DISCONTINUED","WITHDRAWAL BY SUBJECT","PT FINDS PATCHES""INCONVENIENT & ITCHY;PT PREFERS'PILLS'""",2013-07-26,1929-07-03,84,"YEARS",">50",3,,"Y",2013-11-17,106,"VS"
"CDISCPILOT01","01-703-1042","1042","2013-03-02","2013-08-31","2013-03-02","2013-08-31",,"2013-08-31T11:00",,,"703","1949-02-23",64,"YEARS","M","WHITE","NOT HISPANIC OR LATINO","Pbo","Placebo","Pbo","Placebo","USA","2013-02-23",-7,,,"Placebo","Placebo",2013-03-02,"H",2013-08-31,"H",2013-03-02,2013-08-31,"Y",2013-08-31,"COMPLETED",,,2013-03-02,1949-02-23,64,"YEARS",">50",3,,"Y",2013-08-31,,"ADSL"
"CDISCPILOT01","01-703-1076","1076","2013-10-25","2013-12-24","2013-10-25","2013-12-24",,"2014-01-21",,,"703","1944-10-17",69,"YEARS","M","WHITE","NOT HISPANIC OR LATINO","Xan_Hi","Xanomeline High Dose","Xan_Hi","Xanomeline High Dose","USA","2013-10-17",-8,,,"Xanomeline High Dose","Xanomeline High Dose",2013-10-25,"H",2013-12-24,"H",2013-10-25,2013-12-24,"Y",2013-12-24,"DISCONTINUED","ADVERSE EVENT","ADVERSE EVENT",2013-10-25,1944-10-17,69,"YEARS",">50",3,,"Y",2013-12-24,,"ADSL"
"CDISCPILOT01","01-703-1086","1086","2012-09-02","2012-12-24","2012-09-02","2012-12-04",,"2013-03-26",,,"703","1941-08-22",71,"YEARS","M","WHITE","NOT HISPANIC OR LATINO","Xan_Lo","Xanomeline Low Dose","Xan_Lo","Xanomeline Low Dose","USA","2012-08-22",-11,,,"Xanomeline Low Dose","Xanomeline Low Dose",2012-09-02,"H",2012-12-04,"H",2012-09-02,2012-12-04,"Y",2012-12-24,"DISCONTINUED","ADVERSE EVENT","ADVERSE EVENT",2012-09-02,1941-08-22,71,"YEARS",">50",3,,"Y",2013-03-26,121,"VS"
"CDISCPILOT01","01-703-1096","1096","2013-01-25","2013-03-29","2013-01-25","2013-03-16",,"2013-03-29",,,"703","1931-12-19",81,"YEARS","F","WHITE","NOT HISPANIC OR LATINO","Pbo","Placebo","Pbo","Placebo","USA","2012-12-19",-37,,,"Placebo","Placebo",2013-01-25,"H",2013-03-16,"H",2013-01-25,2013-03-16,"Y",2013-03-29,"DISCONTINUED","LOST TO FOLLOW-UP","UNABLE TO CONTACT PATIENT (LOST TO FOLLOW-UP)",2013-01-25,1931-12-19,81,"YEARS",">50",3,,"Y",2013-03-29,3,"DS"
"CDISCPILOT01","01-703-1100","1100","2013-03-13","2013-09-14","2013-03-13","2013-09-14",,"2013-09-14T15:00",,,"703","1929-02-28",84,"YEARS","F","WHITE","NOT HISPANIC OR LATINO","Pbo","Placebo","Pbo","Placebo","USA","2013-02-28",-13,,,"Placebo","Placebo",2013-03-13,"H",2013-09-14,"H",2013-03-13,2013-09-14,"Y",2013-09-14,"COMPLETED",,,2013-03-13,1929-02-28,84,"YEARS",">50",3,,"Y",2013-09-14,,"ADSL"
"CDISCPILOT01","01-703-1119","1119","2013-02-20","2013-06-13","2013-02-20","2013-06-13",,"2013-08-24",,,"703","1932-02-02",81,"YEARS","F","WHITE","NOT HISPANIC OR LATINO","Xan_Lo","Xanomeline Low Dose","Xan_Lo","Xanomeline Low Dose","USA","2013-02-02",-18,,,"Xanomeline Low Dose","Xanomeline Low Dose",2013-02-20,"H",2013-06-13,"H",2013-02-20,2013-06-13,"Y",2013-06-13,"DISCONTINUED","ADVERSE EVENT","ADVERSE EVENT",2013-02-20,1932-02-02,81,"YEARS",">50",3,,"Y",2013-08-24,121,"VS"
"CDISCPILOT01","01-703-1175","1175","2013-12-20","2013-12-31","2013-12-20","2013-12-26",,"2013-12-31T13:15",,,"703","1938-12-13",75,"YEARS","M","WHITE","NOT HISPANIC OR LATINO","Pbo","Placebo","Pbo","Placebo","USA","2013-12-13",-7,,,"Placebo","Placebo",2013-12-20,"H",2013-12-26,"H",2013-12-20,2013-12-26,"Y",2013-12-31,"DISCONTINUED","PROTOCOL VIOLATION","PROTOCOL ENTRY CRITERIA NOT MET",2013-12-20,1938-12-13,75,"YEARS",">50",3,,"Y",2013-12-31,44,"VS"
"CDISCPILOT01","01-703-1182","1182","2013-10-17","2013-12-12","2013-10-17","2013-12-11",,"2014-01-14",,,"703","1929-10-08",84,"YEARS","M","WHITE","NOT HISPANIC OR LATINO","Xan_Lo","Xanomeline Low Dose","Xan_Lo","Xanomeline Low Dose","USA","2013-10-08",-9,,,"Xanomeline Low Dose","Xanomeline Low Dose",2013-10-17,"H",2013-12-11,"H",2013-10-17,2013-12-11,"Y",2013-12-12,"DISCONTINUED","ADVERSE EVENT","ADVERSE EVENT",2013-10-17,1929-10-08,84,"YEARS",">50",3,,"Y",2013-12-12,87,"VS"
"CDISCPILOT01","01-703-1197","1197","2013-06-16","2013-07-22","2013-06-16","2013-06-29",,"2013-07-22",,,"703","1937-06-01",76,"YEARS","F","BLACK OR AFRICAN AMERICAN","NOT HISPANIC OR LATINO","Xan_Lo","Xanomeline Low Dose","Xan_Lo","Xanomeline Low Dose","USA","2013-06-01",-15,,,"Xanomeline Low Dose","Xanomeline Low Dose",2013-06-16,"H",2013-06-29,"H",2013-06-16,2013-06-29,"Y",2013-07-22,"DISCONTINUED","WITHDRAWAL BY SUBJECT","CAREGIVER DECISION:  SEE COMMENT PAGE",2013-06-16,1937-06-01,76,"YEARS",">50",3,,"Y",2013-07-22,44,"VS"
"CDISCPILOT01","01-703-1210","1210","2013-03-16","2013-09-06","2013-03-16","2013-09-06",,"2013-09-06T13:30",,,"703","1941-03-08",72,"YEARS","F","WHITE","NOT HISPANIC OR LATINO","Pbo","Placebo","Pbo","Placebo","USA","2013-03-08",-8,,,"Placebo","Placebo",2013-03-16,"H",2013-09-06,"H",2013-03-16,2013-09-06,"Y",2013-09-06,"COMPLETED",,,2013-03-16,1941-03-08,72,"YEARS",">50",3,,"Y",2013-09-06,,"ADSL"
"CDISCPILOT01","01-703-1258","1258","2012-07-20","2013-01-21","2012-07-20","2013-01-11",,"2013-01-28",,,"703","1934-07-10",78,"YEARS","F","WHITE","NOT HISPANIC OR LATINO","Xan_Hi","Xanomeline High Dose","Xan_Hi","Xanomeline High Dose","USA","2012-07-10",-10,,,"Xanomeline High Dose","Xanomeline High Dose",2012-07-20,"H",2013-01-11,"H",2012-07-20,2013-01-11,"Y",2013-01-21,"DISCONTINUED","ADVERSE EVENT","ADVERSE EVENT",2012-07-20,1934-07-10,78,"YEARS",">50",3,,"Y",2013-01-21,152,"VS"
"CDISCPILOT01","01-703-1279","1279","2013-05-13","2013-06-22","2013-05-13","2013-06-03",,"2013-06-22",,,"703","1941-04-27",72,"YEARS","F","WHITE","NOT HISPANIC OR LATINO","Xan_Lo","Xanomeline Low Dose","Xan_Lo","Xanomeline Low Dose","USA","2013-04-27",-16,,,"Xanomeline Low Dose","Xanomeline Low Dose",2013-05-13,"H",2013-06-03,"H",2013-05-13,2013-06-03,"Y",2013-06-22,"DISCONTINUED","WITHDRAWAL BY SUBJECT","CAREGIVER BECAME ILL",2013-05-13,1941-04-27,72,"YEARS",">50",3,,"Y",2013-06-22,44,"VS"
"CDISCPILOT01","01-703-1295","1295","2013-11-21","2014-05-19","2013-11-21","2014-04-19",,"2014-05-19T14:45",,,"703","1925-10-24",88,"YEARS","F","WHITE","NOT HISPANIC OR LATINO","Xan_Hi","Xanomeline High Dose","Xan_Hi","Xanomeline High Dose","USA","2013-10-24",-28,,,"Xanomeline High Dose","Xanomeline High Dose",2013-11-21,"H",2014-04-19,"H",2013-11-21,2014-04-19,"Y",2014-05-19,"DISCONTINUED","WITHDRAWAL BY SUBJECT","FAMILY WISHES TO DISCONTINUE",2013-11-21,1925-10-24,88,"YEARS",">50",3,,"Y",2014-05-19,130,"VS"
"CDISCPILOT01","01-703-1299","1299","2012-09-12","2013-03-13","2012-09-12","2013-03-13",,"2013-03-27",,,"703","1931-09-07",81,"YEARS","F","WHITE","NOT HISPANIC OR LATINO","Pbo","Placebo","Pbo","Placebo","USA","2012-09-07",-5,,,"Placebo","Placebo",2012-09-12,"H",2013-03-13,"H",2012-09-12,2013-03-13,"Y",2013-03-13,"COMPLETED",,,2012-09-12,1931-09-07,81,"YEARS",">50",3,,"Y",2013-03-13,,"ADSL"
"CDISCPILOT01","01-703-1335","1335","2014-03-17","2014-05-24","2014-03-17","2014-05-07",,"2014-05-24T12:15",,,"703","1947-02-28",67,"YEARS","F","BLACK OR AFRICAN AMERICAN","NOT HISPANIC OR LATINO","Xan_Hi","Xanomeline High Dose","Xan_Hi","Xanomeline High Dose","USA","2014-02-28",-17,,,"Xanomeline High Dose","Xanomeline High Dose",2014-03-17,"H",2014-05-07,"H",2014-03-17,2014-05-07,"Y",2014-05-24,"DISCONTINUED","PROTOCOL VIOLATION","PROTOCOL VIOLATION",2014-03-17,1947-02-28,67,"YEARS",">50",3,,"Y",2014-05-24,86,"VS"
"CDISCPILOT01","01-703-1379","1379","2013-09-22","2014-03-21","2013-09-22","2014-03-21",,"2014-03-21T10:55",,,"703","1932-09-12",81,"YEARS","F","BLACK OR AFRICAN AMERICAN","NOT HISPANIC OR LATINO","Xan_Lo","Xanomeline Low Dose","Xan_Lo","Xanomeline Low Dose","USA","2013-09-12",-10,,,"Xanomeline Low Dose","Xanomeline Low Dose",2013-09-22,"H",2014-03-21,"H",2013-09-22,2014-03-21,"Y",2014-03-21,"COMPLETED",,,2013-09-22,1932-09-12,81,"YEARS",">50",3,,"Y",2014-03-21,,"ADSL"
"CDISCPILOT01","01-703-1396","1396",,,,,,"2014-02-27",,,"703","1930-02-09",84,"YEARS","M","ASIAN","NOT HISPANIC OR LATINO","Scrnfail","Screen Failure","Scrnfail","Screen Failure","USA","2014-02-09",,"SCREEN FAILURE",,"Screen Failure","Screen Failure",,,,,,,"Y",,,,,,1930-02-09,,,">50",3,,"N",2014-02-09,1,"DS"
"CDISCPILOT01","01-703-1403","1403","2012-12-12","2012-12-19","2012-12-12","2012-12-13",,"2013-01-08",,,"703","1945-12-05",67,"YEARS","M","WHITE","NOT HISPANIC OR LATINO","Xan_Hi","Xanomeline High Dose","Xan_Lo","Xanomeline Low Dose","USA","2012-12-05",-7,,,"Xanomeline High Dose","Xanomeline Low Dose",2012-12-12,"H",2012-12-13,"H",2012-12-12,2012-12-13,"Y",2012-12-19,"DISCONTINUED","ADVERSE EVENT","ADVERSE EVENT",2012-12-12,1945-12-05,67,"YEARS",">50",3,,"Y",2012-12-19,44,"VS"
"CDISCPILOT01","01-703-1439","1439","2014-03-12","2014-09-11","2014-03-12","2014-09-11",,"2014-09-11T12:40",,,"703","1938-03-04",76,"YEARS","F","WHITE","NOT HISPANIC OR LATINO","Xan_Hi","Xanomeline High Dose","Xan_Hi","Xanomeline High Dose","USA","2014-03-04",-8,,,"Xanomeline High Dose","Xanomeline High Dose",2014-03-12,"H",2014-09-11,"H",2014-03-12,2014-09-11,"Y",2014-09-11,"COMPLETED",,,2014-03-12,1938-03-04,76,"YEARS",">50",3,,"Y",2014-09-11,,"ADSL"
"CDISCPILOT01","01-704-1008","1008","2013-01-13","2013-02-25","2013-01-13","2013-02-21",,"2013-02-25T11:00",,,"704","1937-01-06",76,"YEARS","F","WHITE","NOT HISPANIC OR LATINO","Xan_Hi","Xanomeline High Dose","Xan_Hi","Xanomeline High Dose","USA","2013-01-06",-7,,,"Xanomeline High Dose","Xanomeline High Dose",2013-01-13,"H",2013-02-21,"H",2013-01-13,2013-02-21,"Y",2013-02-25,"DISCONTINUED","ADVERSE EVENT","ADVERSE EVENT",2013-01-13,1937-01-06,76,"YEARS",">50",3,,"Y",2013-02-25,80,"VS"
"CDISCPILOT01","01-704-1009","1009","2013-08-27","2013-10-02","2013-08-27","2013-09-25",,"2013-10-02",,,"704","1930-08-20",83,"YEARS","M","WHITE","NOT HISPANIC OR LATINO","Xan_Lo","Xanomeline Low Dose","Xan_Lo","Xanomeline Low Dose","USA","2013-08-20",-7,,,"Xanomeline Low Dose","Xanomeline Low Dose",2013-08-27,"H",2013-09-25,"H",2013-08-27,2013-09-25,"Y",2013-10-02,"DISCONTINUED","WITHDRAWAL BY SUBJECT","TOO TIME CONSUMING;PT REFUSED FUTURE HOLTERS",2013-08-27,1930-08-20,83,"YEARS",">50",3,,"Y",2013-10-02,3,"DS"
"CDISCPILOT01","01-704-1010","1010","2014-02-21","2014-07-09","2014-02-21","2014-07-08",,"2014-07-09T11:00",,,"704","1934-02-08",80,"YEARS","M","WHITE","NOT HISPANIC OR LATINO","Pbo","Placebo","Pbo","Placebo","USA","2014-02-08",-13,,,"Placebo","Placebo",2014-02-21,"H",2014-07-08,"H",2014-02-21,2014-07-08,"Y",2014-07-09,"DISCONTINUED","WITHDRAWAL BY SUBJECT","PATIENT IS MOVING",2014-02-21,1934-02-08,80,"YEARS",">50",3,,"Y",2014-07-09,129,"VS"
"CDISCPILOT01","01-704-1017","1017","2013-10-06","2013-11-24","2013-10-06","2013-11-18",,"2013-12-06",,,"704","1936-09-20",77,"YEARS","M","WHITE","NOT HISPANIC OR LATINO","Xan_Hi","Xanomeline High Dose","Xan_Hi","Xanomeline High Dose","USA","2013-09-20",-16,,,"Xanomeline High Dose","Xanomeline High Dose",2013-10-06,"H",2013-11-18,"H",2013-10-06,2013-11-18,"Y",2013-11-24,"DISCONTINUED","ADVERSE EVENT","ADVERSE EVENT",2013-10-06,1936-09-20,77,"YEARS",">50",3,,"Y",2013-11-24,71,"VS"
"CDISCPILOT01","01-704-1025","1025","2013-09-27","2013-11-29","2013-09-27","2013-10-24",,"2013-11-29T12:00",,,"704","1932-09-18",81,"YEARS","F","WHITE","NOT HISPANIC OR LATINO","Xan_Lo","Xanomeline Low Dose","Xan_Lo","Xanomeline Low Dose","USA","2013-09-18",-9,,,"Xanomeline Low Dose","Xanomeline Low Dose",2013-09-27,"H",2013-10-24,"H",2013-09-27,2013-10-24,"Y",2013-11-29,"DISCONTINUED","ADVERSE EVENT","ADVERSE EVENT",2013-09-27,1932-09-18,81,"YEARS",">50",3,,"Y",2013-11-29,3,"DS"
"CDISCPILOT01","01-704-1065","1065","2013-10-24","2013-12-24","2013-10-24","2013-12-22",,"2014-02-17",,,"704","1938-10-17",75,"YEARS","M","WHITE","NOT HISPANIC OR LATINO","Xan_Hi","Xanomeline High Dose","Xan_Hi","Xanomeline High Dose","USA","2013-10-17",-7,,,"Xanomeline High Dose","Xanomeline High Dose",2013-10-24,"H",2013-12-22,"H",2013-10-24,2013-12-22,"Y",2013-12-24,"DISCONTINUED","ADVERSE EVENT","ADVERSE EVENT",2013-10-24,1938-10-17,75,"YEARS",">50",3,,"Y",2013-12-24,107,"VS"
"CDISCPILOT01","01-704-1074","1074","2014-01-22","2014-03-31","2014-01-22","2014-03-20",,"2014-03-31T10:30",,,"704","1934-01-19",80,"YEARS","F","WHITE","NOT HISPANIC OR LATINO","Xan_Hi","Xanomeline High Dose","Xan_Hi","Xanomeline High Dose","USA","2014-01-19",-3,,,"Xanomeline High Dose","Xanomeline High Dose",2014-01-22,"H",2014-03-20,"H",2014-01-22,2014-03-20,"Y",2014-03-31,"DISCONTINUED","ADVERSE EVENT","ADVERSE EVENT",2014-01-22,1934-01-19,80,"YEARS",">50",3,,"Y",2014-03-31,97,"VS"
"CDISCPILOT01","01-704-1093","1093","2013-03-15","2013-06-20","2013-03-15","2013-06-17",,"2013-12-25",,,"704","1934-02-22",79,"YEARS","M","WHITE","NOT HISPANIC OR LATINO","Xan_Hi","Xanomeline High Dose","Xan_Hi","Xanomeline High Dose","USA","2013-02-22",-21,,,"Xanomeline High Dose","Xanomeline High Dose",2013-03-15,"H",2013-06-17,"H",2013-03-15,2013-06-17,"Y",2013-06-20,"DISCONTINUED","ADVERSE EVENT","ADVERSE EVENT",2013-03-15,1934-02-22,79,"YEARS",">50",3,,"Y",2013-12-25,121,"VS"
"CDISCPILOT01","01-704-1114","1114","2013-01-23","2013-07-08","2013-01-23","2013-07-07",,"2013-07-08T09:56",,,"704","1936-01-09",77,"YEARS","M","WHITE","NOT HISPANIC OR LATINO","Xan_Lo","Xanomeline Low Dose","Xan_Lo","Xanomeline Low Dose","USA","2013-01-09",-14,,,"Xanomeline Low Dose","Xanomeline Low Dose",2013-01-23,"H",2013-07-07,"H",2013-01-23,2013-07-07,"Y",2013-07-08,"DISCONTINUED","WITHDRAWAL BY SUBJECT","LEAVING AREA FOR 5 MONTHS",2013-01-23,1936-01-09,77,"YEARS",">50",3,,"Y",2013-07-08,141,"VS"
"CDISCPILOT01","01-704-1120","1120","2013-12-02","2014-02-03","2013-12-02","2014-02-01",,"2014-03-10",,,"704","1942-11-18",71,"YEARS","F","WHITE","NOT HISPANIC OR LATINO","Xan_Lo","Xanomeline Low Dose","Xan_Lo","Xanomeline Low Dose","USA","2013-11-18",-14,,,"Xanomeline Low Dose","Xanomeline Low Dose",2013-12-02,"H",2014-02-01,"H",2013-12-02,2014-02-01,"Y",2014-02-03,"DISCONTINUED","ADVERSE EVENT","ADVERSE EVENT",2013-12-02,1942-11-18,71,"YEARS",">50",3,,"Y",2014-02-03,108,"VS"
"CDISCPILOT01","01-704-1127","1127","2013-10-02","2014-03-31","2013-10-02","2014-03-31",,"2014-03-31T11:30",,,"704","1929-09-16",84,"YEARS","F","WHITE","NOT HISPANIC OR LATINO","Pbo","Placebo","Pbo","Placebo","USA","2013-09-16",-16,,,"Placebo","Placebo",2013-10-02,"H",2014-03-31,"H",2013-10-02,2014-03-31,"Y",2014-03-31,"COMPLETED",,,2013-10-02,1929-09-16,84,"YEARS",">50",3,,"Y",2014-03-31,,"ADSL"
"CDISCPILOT01","01-704-1135","1135","2013-10-31","2014-05-16","2013-10-31","2014-05-16",,"2014-05-16T09:45",,,"704","1939-10-23",74,"YEARS","F","WHITE","NOT HISPANIC OR LATINO","Xan_Lo","Xanomeline Low Dose","Xan_Lo","Xanomeline Low Dose","USA","2013-10-23",-8,,,"Xanomeline Low Dose","Xanomeline Low Dose",2013-10-31,"H",2014-05-16,"H",2013-10-31,2014-05-16,"Y",2014-05-16,"COMPLETED",,,2013-10-31,1939-10-23,74,"YEARS",">50",3,,"Y",2014-05-16,,"ADSL"
"CDISCPILOT01","01-704-1164","1164","2012-09-19","2013-04-04","2012-09-19","2013-04-04",,"2013-04-04",,,"704","1945-09-11",67,"YEARS","F","WHITE","NOT HISPANIC OR LATINO","Pbo","Placebo","Pbo","Placebo","USA","2012-09-11",-8,,,"Placebo","Placebo",2012-09-19,"H",2013-04-04,"H",2012-09-19,2013-04-04,"Y",2013-04-04,"COMPLETED",,,2012-09-19,1945-09-11,67,"YEARS",">50",3,,"Y",2013-04-04,,"ADSL"
"CDISCPILOT01","01-704-1218","1218","2012-11-19","2013-05-27","2012-11-19","2013-05-27",,"2013-05-27T11:20",,,"704","1931-11-11",81,"YEARS","F","WHITE","NOT HISPANIC OR LATINO","Xan_Lo","Xanomeline Low Dose","Xan_Lo","Xanomeline Low Dose","USA","2012-11-11",-8,,,"Xanomeline Low Dose","Xanomeline Low Dose",2012-11-19,"H",2013-05-27,"H",2012-11-19,2013-05-27,"Y",2013-05-27,"COMPLETED",,,2012-11-19,1931-11-11,81,"YEARS",">50",3,,"Y",2013-05-27,,"ADSL"
"CDISCPILOT01","01-704-1233","1233","2013-03-21","2013-07-14","2013-03-21","2013-04-04",,"2013-07-14",,,"704","1926-03-08",87,"YEARS","F","WHITE","NOT HISPANIC OR LATINO","Pbo","Placebo","Pbo","Placebo","USA","2013-03-08",-13,,,"Placebo","Placebo",2013-03-21,"H",2013-04-04,"H",2013-03-21,2013-04-04,"Y",2013-07-14,"DISCONTINUED","WITHDRAWAL BY SUBJECT","WITHDREW CONSENT",2013-03-21,1926-03-08,87,"YEARS",">50",3,,"Y",2013-07-14,3,"DS"
"CDISCPILOT01","01-704-1241","1241","2013-08-25","2013-10-31","2013-08-25","2013-10-09",,"2014-01-22",,,"704","1927-08-14",86,"YEARS","M","WHITE","NOT HISPANIC OR LATINO","Xan_Hi","Xanomeline High Dose","Xan_Hi","Xanomeline High Dose","USA","2013-08-14",-11,,,"Xanomeline High Dose","Xanomeline High Dose",2013-08-25,"H",2013-10-09,"H",2013-08-25,2013-10-09,"Y",2013-10-31,"DISCONTINUED","ADVERSE EVENT","ADVERSE EVENT",2013-08-25,1927-08-14,86,"YEARS",">50",3,,"Y",2013-10-31,97,"VS"
"CDISCPILOT01","01-704-1260","1260","2012-08-30","2013-01-18","2012-08-30","2012-11-04",,"2013-01-18",,,"704","1941-08-23",71,"YEARS","F","WHITE","NOT HISPANIC OR LATINO","Pbo","Placebo","Pbo","Placebo","USA","2012-08-23",-7,,,"Placebo","Placebo",2012-08-30,"H",2012-11-04,"H",2012-08-30,2012-11-04,"Y",2013-01-18,"DISCONTINUED","WITHDRAWAL BY SUBJECT","TOO MANY VISITS",2012-08-30,1941-08-23,71,"YEARS",">50",3,,"Y",2013-01-18,3,"DS"
"CDISCPILOT01","01-704-1266","1266","2013-10-13","2013-12-06","2013-10-13","2013-12-06",,"2014-01-03",,,"704","1931-10-05",82,"YEARS","M","WHITE","NOT HISPANIC OR LATINO","Xan_Hi","Xanomeline High Dose","Xan_Hi","Xanomeline High Dose","USA","2013-10-05",-8,,,"Xanomeline High Dose","Xanomeline High Dose",2013-10-13,"H",2013-12-06,"H",2013-10-13,2013-12-06,"Y",2013-12-06,"DISCONTINUED","ADVERSE EVENT","ADVERSE EVENT",2013-10-13,1931-10-05,82,"YEARS",">50",3,,"Y",2013-12-06,,"ADSL"
"CDISCPILOT01","01-704-1323","1323","2013-07-08","2013-08-08","2013-07-08","2013-08-05",,"2013-10-01",,,"704","1945-06-13",68,"YEARS","F","WHITE","NOT HISPANIC OR LATINO","Xan_Lo","Xanomeline Low Dose","Xan_Lo","Xanomeline Low Dose","USA","2013-06-13",-25,,,"Xanomeline Low Dose","Xanomeline Low Dose",2013-07-08,"H",2013-08-05,"H",2013-07-08,2013-08-05,"Y",2013-08-08,"DISCONTINUED","ADVERSE EVENT","ADVERSE EVENT",2013-07-08,1945-06-13,68,"YEARS",">50",3,,"Y",2013-08-08,3,"DS"
"CDISCPILOT01","01-704-1325","1325","2014-04-23","2014-08-06","2014-04-23","2014-07-04",,"2014-08-06T13:30",,,"704","1933-04-16",81,"YEARS","M","WHITE","NOT HISPANIC OR LATINO","Xan_Lo","Xanomeline Low Dose","Xan_Lo","Xanomeline Low Dose","USA","2014-04-16",-7,,,"Xanomeline Low Dose","Xanomeline Low Dose",2014-04-23,"H",2014-07-04,"H",2014-04-23,2014-07-04,"Y",2014-08-06,"DISCONTINUED","PROTOCOL VIOLATION","PROTOCOL VIOLATION",2014-04-23,1933-04-16,81,"YEARS",">50",3,,"Y",2014-08-06,108,"VS"
"CDISCPILOT01","01-704-1332","1332","2013-12-09","2014-02-16","2013-12-09","2014-02-14",,"2014-02-24",,,"704","1933-11-24",80,"YEARS","M","WHITE","NOT HISPANIC OR LATINO","Xan_Hi","Xanomeline High Dose","Xan_Hi","Xanomeline High Dose","USA","2013-11-24",-15,,,"Xanomeline High Dose","Xanomeline High Dose",2013-12-09,"H",2014-02-14,"H",2013-12-09,2014-02-14,"Y",2014-02-16,"DISCONTINUED","ADVERSE EVENT","ADVERSE EVENT",2013-12-09,1933-11-24,80,"YEARS",">50",3,,"Y",2014-02-16,105,"VS"
"CDISCPILOT01","01-704-1351","1351","2013-10-12","2014-04-18","2013-10-12","2014-04-18",,"2014-04-18T10:30",,,"704","1943-09-26",70,"YEARS","M","WHITE","NOT HISPANIC OR LATINO","Pbo","Placebo","Pbo","Placebo","USA","2013-09-26",-16,,,"Placebo","Placebo",2013-10-12,"H",2014-04-18,"H",2013-10-12,2014-04-18,"Y",2014-04-18,"COMPLETED",,,2013-10-12,1943-09-26,70,"YEARS",">50",3,,"Y",2014-04-18,,"ADSL"
"CDISCPILOT01","01-704-1388","1388","2012-12-07","2013-06-19","2012-12-07","2013-06-11",,"2013-06-19T12:30",,,"704","1931-11-28",81,"YEARS","M","WHITE","NOT HISPANIC OR LATINO","Pbo","Placebo","Pbo","Placebo","USA","2012-11-28",-9,,,"Placebo","Placebo",2012-12-07,"H",2013-06-11,"H",2012-12-07,2013-06-11,"Y",2013-06-19,"COMPLETED",,,2012-12-07,1931-11-28,81,"YEARS",">50",3,,"Y",2013-06-19,152,"VS"
"CDISCPILOT01","01-704-1435","1435","2012-11-17","2013-01-12","2012-11-17","2013-01-09",,"2013-01-12T12:00",,,"704","1938-11-01",74,"YEARS","M","WHITE","NOT HISPANIC OR LATINO","Pbo","Placebo","Pbo","Placebo","USA","2012-11-01",-16,,,"Placebo","Placebo",2012-11-17,"H",2013-01-09,"H",2012-11-17,2013-01-09,"Y",2013-01-12,"DISCONTINUED","WITHDRAWAL BY SUBJECT","WITHDREW CONSENT",2012-11-17,1938-11-01,74,"YEARS",">50",3,,"Y",2013-01-12,93,"VS"
"CDISCPILOT01","01-704-1445","1445","2014-05-11","2014-11-01","2014-05-11","2014-11-01",,"2014-11-01","2014-11-01","Y","704","1939-05-01",75,"YEARS","M","WHITE","NOT HISPANIC OR LATINO","Pbo","Placebo","Pbo","Placebo","USA","2014-05-01",-10,,,"Placebo","Placebo",2014-05-11,"H",2014-11-01,"H",2014-05-11,2014-11-01,"Y",2014-11-01,"DISCONTINUED","DEATH","DEATH",2014-05-11,1939-05-01,75,"YEARS",">50",3,2014-11-01,"Y",2014-11-01,,"ADSL"
"CDISCPILOT01","01-705-1011","1011",,,,,,"2013-09-13",,,"705","1938-09-01",75,"YEARS","F","WHITE","NOT HISPANIC OR LATINO","Scrnfail","Screen Failure","Scrnfail","Screen Failure","USA","2013-09-01",,"SCREEN FAILURE",,"Screen Failure","Screen Failure",,,,,,,"Y",,,,,,1938-09-01,,,">50",3,,"N",2013-09-01,1,"DS"
"CDISCPILOT01","01-705-1018","1018","2013-07-05","2013-07-12","2013-07-05",,,"2013-07-12",,,"705","1944-06-30",69,"YEARS","F","WHITE","NOT HISPANIC OR LATINO","Pbo","Placebo","Pbo","Placebo","USA","2013-06-30",-5,,,"Placebo","Placebo",2013-07-05,"H",,,2013-07-05,,"Y",2013-07-12,"DISCONTINUED","WITHDRAWAL BY SUBJECT","PATIENT WITHDREW CONSENT",2013-07-05,1944-06-30,69,"YEARS",">50",3,,"Y",2013-07-12,3,"DS"
"CDISCPILOT01","01-705-1031","1031","2013-11-27","2014-05-11","2013-11-27","2013-12-18",,"2014-05-11T09:55",,,"705","1957-11-17",56,"YEARS","F","WHITE","HISPANIC OR LATINO","Xan_Lo","Xanomeline Low Dose","Xan_Lo","Xanomeline Low Dose","USA","2013-11-17",-10,,,"Xanomeline Low Dose","Xanomeline Low Dose",2013-11-27,"H",2013-12-18,"H",2013-11-27,2013-12-18,"Y",2014-05-11,"DISCONTINUED","LOST TO FOLLOW-UP","UNABLE TO CONTACT PATIENT (LOST TO FOLLOW-UP)",2013-11-27,1957-11-17,56,"YEARS",">50",3,,"Y",2014-05-11,141,"VS"
"CDISCPILOT01","01-705-1058","1058",,,,,,"2013-12-06",,,"705","1924-12-02",89,"YEARS","M","WHITE","NOT HISPANIC OR LATINO","Scrnfail","Screen Failure","Scrnfail","Screen Failure","USA","2013-12-02",,"SCREEN FAILURE",,"Screen Failure","Screen Failure",,,,,,,"Y",,,,,,1924-12-02,,,">50",3,,"N",2013-12-02,1,"DS"
"CDISCPILOT01","01-705-1059","1059","2013-08-05","2013-12-05","2013-08-05","2013-12-05",,"2014-02-06",,,"705","1947-08-02",66,"YEARS","F","WHITE","NOT HISPANIC OR LATINO","Pbo","Placebo","Pbo","Placebo","USA","2013-08-02",-3,,,"Placebo","Placebo",2013-08-05,"H",2013-12-05,"H",2013-08-05,2013-12-05,"Y",2013-12-05,"DISCONTINUED","ADVERSE EVENT","ADVERSE EVENT",2013-08-05,1947-08-02,66,"YEARS",">50",3,,"Y",2014-02-06,121,"VS"
"CDISCPILOT01","01-705-1112","1112",,,,,,"2014-02-24",,,"705","1936-02-23",78,"YEARS","M","WHITE","NOT HISPANIC OR LATINO","Scrnfail","Screen Failure","Scrnfail","Screen Failure","USA","2014-02-23",,"SCREEN FAILURE",,"Screen Failure","Screen Failure",,,,,,,"Y",,,,,,1936-02-23,,,">50",3,,"N",2014-02-23,1,"DS"
"CDISCPILOT01","01-705-1186","1186","2014-01-08","2014-02-07","2014-01-08","2014-01-26",,"2014-02-07T15:20",,,"705","1930-01-03",84,"YEARS","F","WHITE","NOT HISPANIC OR LATINO","Pbo","Placebo","Pbo","Placebo","USA","2014-01-03",-5,,,"Placebo","Placebo",2014-01-08,"H",2014-01-26,"H",2014-01-08,2014-01-26,"Y",2014-02-07,"DISCONTINUED","PHYSICIAN DECISION","HYPERBILIRUBINEMIA",2014-01-08,1930-01-03,84,"YEARS",">50",3,,"Y",2014-02-07,65,"VS"
"CDISCPILOT01","01-705-1199","1199","2013-09-16","2013-09-29","2013-09-16","2013-09-28",,"2013-09-29T10:30",,,"705","1926-09-11",87,"YEARS","M","WHITE","NOT HISPANIC OR LATINO","Xan_Lo","Xanomeline Low Dose","Xan_Lo","Xanomeline Low Dose","USA","2013-09-11",-5,,,"Xanomeline Low Dose","Xanomeline Low Dose",2013-09-16,"H",2013-09-28,"H",2013-09-16,2013-09-28,"Y",2013-09-29,"DISCONTINUED","ADVERSE EVENT","ADVERSE EVENT",2013-09-16,1926-09-11,87,"YEARS",">50",3,,"Y",2013-09-29,44,"VS"
"CDISCPILOT01","01-705-1243","1243",,,,,,"2013-03-04",,,"705","1943-02-26",70,"YEARS","F","WHITE","HISPANIC OR LATINO","Scrnfail","Screen Failure","Scrnfail","Screen Failure","USA","2013-02-26",,"SCREEN FAILURE",,"Screen Failure","Screen Failure",,,,,,,"Y",,,,,,1943-02-26,,,">50",3,,"N",2013-02-26,1,"DS"
"CDISCPILOT01","01-705-1280","1280","2014-01-17","2014-07-25","2014-01-17","2014-07-25",,"2014-07-25",,,"705","1958-01-11",56,"YEARS","F","WHITE","NOT HISPANIC OR LATINO","Xan_Hi","Xanomeline High Dose","Xan_Hi","Xanomeline High Dose","USA","2014-01-11",-6,,,"Xanomeline High Dose","Xanomeline High Dose",2014-01-17,"H",2014-07-25,"H",2014-01-17,2014-07-25,"Y",2014-07-25,"COMPLETED",,,2014-01-17,1958-01-11,56,"YEARS",">50",3,,"Y",2014-07-25,,"ADSL"
"CDISCPILOT01","01-705-1281","1281","2013-11-28","2014-03-17","2013-11-28","2014-02-27",,"2014-04-20",,,"705","1940-11-26",73,"YEARS","F","BLACK OR AFRICAN AMERICAN","NOT HISPANIC OR LATINO","Xan_Hi","Xanomeline High Dose","Xan_Hi","Xanomeline High Dose","USA","2013-11-26",-2,,,"Xanomeline High Dose","Xanomeline High Dose",2013-11-28,"H",2014-02-27,"H",2013-11-28,2014-02-27,"Y",2014-03-17,"DISCONTINUED","ADVERSE EVENT","ADVERSE EVENT",2013-11-28,1940-11-26,73,"YEARS",">50",3,,"Y",2014-03-17,119,"VS"
"CDISCPILOT01","01-705-1282","1282","2012-12-26","2013-06-24","2012-12-26","2013-06-24",,"2013-06-24T15:25",,,"705","1942-12-23",70,"YEARS","F","BLACK OR AFRICAN AMERICAN","NOT HISPANIC OR LATINO","Pbo","Placebo","Pbo","Placebo","USA","2012-12-23",-3,,,"Placebo","Placebo",2012-12-26,"H",2013-06-24,"H",2012-12-26,2013-06-24,"Y",2013-06-24,"COMPLETED",,,2012-12-26,1942-12-23,70,"YEARS",">50",3,,"Y",2013-06-24,,"ADSL"
"CDISCPILOT01","01-705-1292","1292","2013-10-14","2014-05-14","2013-10-14","2014-05-13",,"2014-05-14T13:33",,,"705","1953-10-11",60,"YEARS","F","BLACK OR AFRICAN AMERICAN","NOT HISPANIC OR LATINO","Xan_Lo","Xanomeline Low Dose","Xan_Lo","Xanomeline Low Dose","USA","2013-10-11",-3,,,"Xanomeline Low Dose","Xanomeline Low Dose",2013-10-14,"H",2014-05-13,"H",2013-10-14,2014-05-13,"Y",2014-05-14,"COMPLETED",,,2013-10-14,1953-10-11,60,"YEARS",">50",3,,"Y",2014-05-14,152,"VS"
"CDISCPILOT01","01-705-1303","1303","2013-12-16","2014-06-02","2013-12-16","2013-12-30",,"2014-06-02",,,"705","1941-12-10",72,"YEARS","M","WHITE","NOT HISPANIC OR LATINO","Xan_Hi","Xanomeline High Dose","Xan_Hi","Xanomeline High Dose","USA","2013-12-10",-6,,,"Xanomeline High Dose","Xanomeline High Dose",2013-12-16,"H",2013-12-30,"H",2013-12-16,2013-12-30,"Y",2014-06-02,"DISCONTINUED","ADVERSE EVENT","ADVERSE EVENT",2013-12-16,1941-12-10,72,"YEARS",">50",3,,"Y",2014-06-02,3,"DS"
"CDISCPILOT01","01-705-1310","1310","2013-11-02","2014-01-23","2013-11-02","2014-01-23",,"2014-02-24",,,"705","1939-10-26",74,"YEARS","F","WHITE","NOT HISPANIC OR LATINO","Xan_Hi","Xanomeline High Dose","Xan_Hi","Xanomeline High Dose","USA","2013-10-26",-7,,,"Xanomeline High Dose","Xanomeline High Dose",2013-11-02,"H",2014-01-23,"H",2013-11-02,2014-01-23,"Y",2014-01-23,"DISCONTINUED","ADVERSE EVENT","ADVERSE EVENT",2013-11-02,1939-10-26,74,"YEARS",">50",3,,"Y",2014-01-23,,"ADSL"
"CDISCPILOT01","01-705-1349","1349","2013-03-10","2013-09-08","2013-03-10","2013-09-08",,"2013-09-08T10:10",,,"705","1927-02-24",86,"YEARS","F","WHITE","HISPANIC OR LATINO","Pbo","Placebo","Pbo","Placebo","USA","2013-02-24",-14,,,"Placebo","Placebo",2013-03-10,"H",2013-09-08,"H",2013-03-10,2013-09-08,"Y",2013-09-08,"COMPLETED",,,2013-03-10,1927-02-24,86,"YEARS",">50",3,,"Y",2013-09-08,,"ADSL"
"CDISCPILOT01","01-705-1377","1377","2014-01-04","2014-03-07","2014-01-04","2014-01-25",,"2014-03-07",,,"705","1950-12-29",63,"YEARS","F","BLACK OR AFRICAN AMERICAN","NOT HISPANIC OR LATINO","Xan_Hi","Xanomeline High Dose","Xan_Hi","Xanomeline High Dose","USA","2013-12-29",-6,,,"Xanomeline High Dose","Xanomeline High Dose",2014-01-04,"H",2014-01-25,"H",2014-01-04,2014-01-25,"Y",2014-03-07,"DISCONTINUED","WITHDRAWAL BY SUBJECT","PATIENT WITHDREW CONSENT",2014-01-04,1950-12-29,63,"YEARS",">50",3,,"Y",2014-03-07,3,"DS"
"CDISCPILOT01","01-705-1382","1382","2013-05-13","2013-05-13","2013-05-13",,,"2013-05-13",,,"705","1931-05-09",82,"YEARS","M","WHITE","NOT HISPANIC OR LATINO","Xan_Hi","Xanomeline High Dose","Xan_Lo","Xanomeline Low Dose","USA","2013-05-09",-4,,,"Xanomeline High Dose","Xanomeline Low Dose",2013-05-13,"H",,,2013-05-13,,"Y",2013-05-13,"DISCONTINUED","PROTOCOL VIOLATION","PROTOCOL ENTRY CRITERIA NOT MET",2013-05-13,1931-05-09,82,"YEARS",">50",3,,"Y",2013-05-13,33,"VS"
"CDISCPILOT01","01-705-1393","1393","2012-09-07","2013-02-20","2012-09-07","2013-02-01",,"2013-04-25",,,"705","1928-09-02",84,"YEARS","F","WHITE","NOT HISPANIC OR LATINO","Xan_Lo","Xanomeline Low Dose","Xan_Lo","Xanomeline Low Dose","USA","2012-09-02",-5,,,"Xanomeline Low Dose","Xanomeline Low Dose",2012-09-07,"H",2013-02-01,"H",2012-09-07,2013-02-01,"Y",2013-02-20,"DISCONTINUED","ADVERSE EVENT","ADVERSE EVENT",2012-09-07,1928-09-02,84,"YEARS",">50",3,,"Y",2013-02-20,130,"VS"
"CDISCPILOT01","01-705-1421","1421",,,,,,"2013-01-16",,,"705","1926-01-14",87,"YEARS","M","WHITE","NOT HISPANIC OR LATINO","Scrnfail","Screen Failure","Scrnfail","Screen Failure","USA","2013-01-14",,"SCREEN FAILURE",,"Screen Failure","Screen Failure",,,,,,,"Y",,,,,,1926-01-14,,,">50",3,,"N",2013-01-14,1,"DS"
"CDISCPILOT01","01-705-1431","1431","2013-06-23","2013-12-19","2013-06-23","2013-12-19",,"2013-12-19T10:05",,,"705","1945-06-16",68,"YEARS","F","WHITE","HISPANIC OR LATINO","Xan_Lo","Xanomeline Low Dose","Xan_Lo","Xanomeline Low Dose","USA","2013-06-16",-7,,,"Xanomeline Low Dose","Xanomeline Low Dose",2013-06-23,"H",2013-12-19,"H",2013-06-23,2013-12-19,"Y",2013-12-19,"COMPLETED",,,2013-06-23,1945-06-16,68,"YEARS",">50",3,,"Y",2013-12-19,,"ADSL"
"CDISCPILOT01","01-706-1041","1041","2013-12-31","2014-07-29","2013-12-31","2014-07-28",,"2014-07-29T13:45",,,"706","1949-12-21",64,"YEARS","F","BLACK OR AFRICAN AMERICAN","NOT HISPANIC OR LATINO","Pbo","Placebo","Pbo","Placebo","USA","2013-12-21",-10,,,"Placebo","Placebo",2013-12-31,"H",2014-07-28,"H",2013-12-31,2014-07-28,"Y",2014-07-29,"COMPLETED",,,2013-12-31,1949-12-21,64,"YEARS",">50",3,,"Y",2014-07-29,152,"VS"
"CDISCPILOT01","01-706-1049","1049","2013-05-14","2013-06-25","2013-05-14","2013-06-18",,"2013-11-26",,,"706","1953-04-30",60,"YEARS","F","WHITE","NOT HISPANIC OR LATINO","Xan_Hi","Xanomeline High Dose","Xan_Hi","Xanomeline High Dose","USA","2013-04-30",-14,,,"Xanomeline High Dose","Xanomeline High Dose",2013-05-14,"H",2013-06-18,"H",2013-05-14,2013-06-18,"Y",2013-06-25,"DISCONTINUED","ADVERSE EVENT","ADVERSE EVENT",2013-05-14,1953-04-30,60,"YEARS",">50",3,,"Y",2013-11-26,91,"VS"
"CDISCPILOT01","01-706-1384","1384","2012-09-15","2012-09-29","2012-09-15","2012-09-24",,"2013-06-22",,,"706","1938-08-25",74,"YEARS","F","WHITE","NOT HISPANIC OR LATINO","Xan_Lo","Xanomeline Low Dose","Xan_Lo","Xanomeline Low Dose","USA","2012-08-25",-21,,,"Xanomeline Low Dose","Xanomeline Low Dose",2012-09-15,"H",2012-09-24,"H",2012-09-15,2012-09-24,"Y",2012-09-29,"DISCONTINUED","ADVERSE EVENT","ADVERSE EVENT",2012-09-15,1938-08-25,74,"YEARS",">50",3,,"Y",2013-06-22,51,"VS"
"CDISCPILOT01","01-707-1037","1037","2013-12-20","2014-01-08","2013-12-20","2013-12-24",,"2014-01-08T12:40",,,"707","1941-12-12",72,"YEARS","F","WHITE","NOT HISPANIC OR LATINO","Xan_Lo","Xanomeline Low Dose","Xan_Lo","Xanomeline Low Dose","USA","2013-12-12",-8,,,"Xanomeline Low Dose","Xanomeline Low Dose",2013-12-20,"H",2013-12-24,"H",2013-12-20,2013-12-24,"Y",2014-01-08,"DISCONTINUED","WITHDRAWAL BY SUBJECT","WITHDRAWS CONSENT",2013-12-20,1941-12-12,72,"YEARS",">50",3,,"Y",2014-01-08,44,"VS"
"CDISCPILOT01","01-707-1206","1206","2013-10-28","2014-04-27","2013-10-28","2014-04-26",,"2014-04-27T08:00",,,"707","1948-10-20",65,"YEARS","M","WHITE","NOT HISPANIC OR LATINO","Pbo","Placebo","Pbo","Placebo","USA","2013-10-20",-8,,,"Placebo","Placebo",2013-10-28,"H",2014-04-26,"H",2013-10-28,2014-04-26,"Y",2014-04-27,"COMPLETED",,,2013-10-28,1948-10-20,65,"YEARS",">50",3,,"Y",2014-04-27,152,"VS"
"CDISCPILOT01","01-707-1276","1276",,,,,,"2012-10-29",,,"707","1940-10-12",72,"YEARS","F","WHITE","NOT HISPANIC OR LATINO","Scrnfail","Screen Failure","Scrnfail","Screen Failure","USA","2012-10-12",,"SCREEN FAILURE",,"Screen Failure","Screen Failure",,,,,,,"Y",,,,,,1940-10-12,,,">50",3,,"N",2012-10-12,1,"DS"
"CDISCPILOT01","01-707-1430","1430",,,,,,"2014-02-15",,,"707","1933-02-14",81,"YEARS","F","WHITE","NOT HISPANIC OR LATINO","Scrnfail","Screen Failure","Scrnfail","Screen Failure","USA","2014-02-14",,"SCREEN FAILURE",,"Screen Failure","Screen Failure",,,,,,,"Y",,,,,,1933-02-14,,,">50",3,,"N",2014-02-14,1,"DS"
"CDISCPILOT01","01-707-1434","1434",,,,,,"2013-07-29",,,"707","1937-07-25",76,"YEARS","F","WHITE","NOT HISPANIC OR LATINO","Scrnfail","Screen Failure","Scrnfail","Screen Failure","USA","2013-07-25",,"SCREEN FAILURE",,"Screen Failure","Screen Failure",,,,,,,"Y",,,,,,1937-07-25,,,">50",3,,"N",2013-07-25,1,"DS"
"CDISCPILOT01","01-708-1013","1013",,,,,,"2012-11-09",,,"708","1932-10-13",80,"YEARS","M","WHITE","NOT HISPANIC OR LATINO","Scrnfail","Screen Failure","Scrnfail","Screen Failure","USA","2012-10-13",,"SCREEN FAILURE",,"Screen Failure","Screen Failure",,,,,,,"Y",,,,,,1932-10-13,,,">50",3,,"N",2012-10-13,1,"DS"
"CDISCPILOT01","01-708-1019","1019","2013-12-20","2014-01-23","2013-12-20","2014-01-01",,"2014-01-23T10:10",,,"708","1945-12-10",68,"YEARS","M","WHITE","NOT HISPANIC OR LATINO","Xan_Lo","Xanomeline Low Dose","Xan_Lo","Xanomeline Low Dose","USA","2013-12-10",-10,,,"Xanomeline Low Dose","Xanomeline Low Dose",2013-12-20,"H",2014-01-01,"H",2013-12-20,2014-01-01,"Y",2014-01-23,"DISCONTINUED","ADVERSE EVENT","ADVERSE EVENT",2013-12-20,1945-12-10,68,"YEARS",">50",3,,"Y",2014-01-23,44,"VS"
"CDISCPILOT01","01-708-1032","1032","2013-02-09","2013-03-09","2013-02-09","2013-03-01",,"2013-03-09T10:45",,,"708","1951-02-02",62,"YEARS","M","WHITE","NOT HISPANIC OR LATINO","Xan_Lo","Xanomeline Low Dose","Xan_Lo","Xanomeline Low Dose","USA","2013-02-02",-7,,,"Xanomeline Low Dose","Xanomeline Low Dose",2013-02-09,"H",2013-03-01,"H",2013-02-09,2013-03-01,"Y",2013-03-09,"DISCONTINUED","ADVERSE EVENT","ADVERSE EVENT",2013-02-09,1951-02-02,62,"YEARS",">50",3,,"Y",2013-03-09,65,"VS"
"CDISCPILOT01","01-708-1054","1054",,,,,,"2014-03-05",,,"708","1941-02-14",73,"YEARS","F","BLACK OR AFRICAN AMERICAN","NOT HISPANIC OR LATINO","Scrnfail","Screen Failure","Scrnfail","Screen Failure","USA","2014-02-14",,"SCREEN FAILURE",,"Screen Failure","Screen Failure",,,,,,,"Y",,,,,,1941-02-14,,,">50",3,,"N",2014-02-14,1,"DS"
"CDISCPILOT01","01-708-1067","1067",,,,,,"2013-03-07",,,"708","1925-02-07",88,"YEARS","M","WHITE","NOT HISPANIC OR LATINO","Scrnfail","Screen Failure","Scrnfail","Screen Failure","USA","2013-02-07",,"SCREEN FAILURE",,"Screen Failure","Screen Failure",,,,,,,"Y",,,,,,1925-02-07,,,">50",3,,"N",2013-02-07,1,"DS"
"CDISCPILOT01","01-708-1084","1084","2013-05-09","2013-11-11","2013-05-09","2013-11-11",,"2013-11-11T10:00",,,"708","1940-05-01",73,"YEARS","F","WHITE","NOT HISPANIC OR LATINO","Xan_Lo","Xanomeline Low Dose","Xan_Lo","Xanomeline Low Dose","USA","2013-05-01",-8,,,"Xanomeline Low Dose","Xanomeline Low Dose",2013-05-09,"H",2013-11-11,"H",2013-05-09,2013-11-11,"Y",2013-11-11,"COMPLETED",,,2013-05-09,1940-05-01,73,"YEARS",">50",3,,"Y",2013-11-11,,"ADSL"
"CDISCPILOT01","01-708-1087","1087","2012-10-22","2013-04-28","2012-10-22","2013-04-28",,"2013-04-28T12:40",,,"708","1938-10-06",74,"YEARS","F","WHITE","NOT HISPANIC OR LATINO","Pbo","Placebo","Pbo","Placebo","USA","2012-10-06",-16,,,"Placebo","Placebo",2012-10-22,"H",2013-04-28,"H",2012-10-22,2013-04-28,"Y",2013-04-28,"COMPLETED",,,2012-10-22,1938-10-06,74,"YEARS",">50",3,,"Y",2013-04-28,,"ADSL"
"CDISCPILOT01","01-708-1104","1104",,,,,,"2014-01-23",,,"708","1936-01-23",78,"YEARS","F","ASIAN","NOT HISPANIC OR LATINO","Scrnfail","Screen Failure","Scrnfail","Screen Failure","USA","2014-01-23",,"SCREEN FAILURE",,"Screen Failure","Screen Failure",,,,,,,"Y",,,,,,1936-01-23,,,">50",3,,"N",2014-01-23,1,"DS"
"CDISCPILOT01","01-708-1158","1158","2014-02-08","2014-03-22","2014-02-08","2014-03-21",,"2014-03-22T11:15",,,"708","1933-02-01",81,"YEARS","F","WHITE","NOT HISPANIC OR LATINO","Pbo","Placebo","Pbo","Placebo","USA","2014-02-01",-7,,,"Placebo","Placebo",2014-02-08,"H",2014-03-21,"H",2014-02-08,2014-03-21,"Y",2014-03-22,"DISCONTINUED","ADVERSE EVENT","ADVERSE EVENT",2014-02-08,1933-02-01,81,"YEARS",">50",3,,"Y",2014-03-22,86,"VS"
"CDISCPILOT01","01-708-1171","1171","2012-12-06","2013-06-04","2012-12-06","2013-06-04",,"2013-06-04",,,"708","1935-11-25",77,"YEARS","F","WHITE","NOT HISPANIC OR LATINO","Pbo","Placebo","Pbo","Placebo","USA","2012-11-25",-11,,,"Placebo","Placebo",2012-12-06,"H",2013-06-04,"H",2012-12-06,2013-06-04,"Y",2013-06-04,"COMPLETED",,,2012-12-06,1935-11-25,77,"YEARS",">50",3,,"Y",2013-06-04,,"ADSL"
"CDISCPILOT01","01-708-1178","1178","2013-12-29","2014-04-06","2013-12-29","2014-04-06",,"2014-04-06T08:50",,,"708","1936-12-13",77,"YEARS","F","BLACK OR AFRICAN AMERICAN","NOT HISPANIC OR LATINO","Xan_Hi","Xanomeline High Dose","Xan_Hi","Xanomeline High Dose","USA","2013-12-13",-16,,,"Xanomeline High Dose","Xanomeline High Dose",2013-12-29,"H",2014-04-06,"H",2013-12-29,2014-04-06,"Y",2014-04-06,"DISCONTINUED","PHYSICIAN DECISION","DR PUT PT ON AN EXCLUDED MEDICATION",2013-12-29,1936-12-13,77,"YEARS",">50",3,,"Y",2014-04-06,,"ADSL"
"CDISCPILOT01","01-708-1184","1184",,,,,,"2013-02-03",,,"708","1943-01-14",70,"YEARS","F","WHITE","NOT HISPANIC OR LATINO","Scrnfail","Screen Failure","Scrnfail","Screen Failure","USA","2013-01-14",,"SCREEN FAILURE",,"Screen Failure","Screen Failure",,,,,,,"Y",,,,,,1943-01-14,,,">50",3,,"N",2013-01-14,1,"DS"
"CDISCPILOT01","01-708-1213","1213","2013-02-09","2013-02-26","2013-02-09","2013-02-22",,"2013-02-26",,,"708","1937-02-01",76,"YEARS","F","WHITE","NOT HISPANIC OR LATINO","Xan_Hi","Xanomeline High Dose","Xan_Lo","Xanomeline Low Dose","USA","2013-02-01",-8,,,"Xanomeline High Dose","Xanomeline Low Dose",2013-02-09,"H",2013-02-22,"H",2013-02-09,2013-02-22,"Y",2013-02-26,"DISCONTINUED","ADVERSE EVENT","ADVERSE EVENT",2013-02-09,1937-02-01,76,"YEARS",">50",3,,"Y",2013-02-26,55,"VS"
"CDISCPILOT01","01-708-1216","1216","2012-10-24","2012-12-06","2012-10-24","2012-11-29",,"2013-01-09",,,"708","1934-10-14",78,"YEARS","M","WHITE","NOT HISPANIC OR LATINO","Xan_Hi","Xanomeline High Dose","Xan_Hi","Xanomeline High Dose","USA","2012-10-14",-10,,,"Xanomeline High Dose","Xanomeline High Dose",2012-10-24,"H",2012-11-29,"H",2012-10-24,2012-11-29,"Y",2012-12-06,"DISCONTINUED","ADVERSE EVENT","ADVERSE EVENT",2012-10-24,1934-10-14,78,"YEARS",">50",3,,"Y",2012-12-06,86,"VS"
"CDISCPILOT01","01-708-1236","1236","2013-09-21","2013-09-26","2013-09-21","2013-09-21",,"2013-09-26",,,"708","1927-09-08",86,"YEARS","F","WHITE","NOT HISPANIC OR LATINO","Xan_Hi","Xanomeline High Dose","Xan_Lo","Xanomeline Low Dose","USA","2013-09-08",-13,,,"Xanomeline High Dose","Xanomeline Low Dose",2013-09-21,"H",2013-09-21,"H",2013-09-21,2013-09-21,"Y",2013-09-26,"DISCONTINUED","WITHDRAWAL BY SUBJECT","PATIENT WITHDREW CONSENT",2013-09-21,1927-09-08,86,"YEARS",">50",3,,"Y",2013-09-26,3,"DS"
"CDISCPILOT01","01-708-1242","1242",,,,,,"2012-08-13",,,"708","1932-08-13",80,"YEARS","M","WHITE","NOT HISPANIC OR LATINO","Scrnfail","Screen Failure","Scrnfail","Screen Failure","USA","2012-08-13",,"SCREEN FAILURE",,"Screen Failure","Screen Failure",,,,,,,"Y",,,,,,1932-08-13,,,">50",3,,"N",2012-08-13,1,"DS"
"CDISCPILOT01","01-708-1253","1253","2013-05-07","2013-11-05","2013-05-07","2013-11-05",,"2013-11-05",,,"708","1952-04-26",61,"YEARS","M","WHITE","NOT HISPANIC OR LATINO","Pbo","Placebo","Pbo","Placebo","USA","2013-04-26",-11,,,"Placebo","Placebo",2013-05-07,"H",2013-11-05,"H",2013-05-07,2013-11-05,"Y",2013-11-05,"COMPLETED",,,2013-05-07,1952-04-26,61,"YEARS",">50",3,,"Y",2013-11-05,,"ADSL"
"CDISCPILOT01","01-708-1272","1272","2013-02-06","2013-04-04","2013-02-06","2013-03-22",,"2013-04-04T11:05",,,"708","1931-01-22",82,"YEARS","M","WHITE","NOT HISPANIC OR LATINO","Xan_Lo","Xanomeline Low Dose","Xan_Lo","Xanomeline Low Dose","USA","2013-01-22",-15,,,"Xanomeline Low Dose","Xanomeline Low Dose",2013-02-06,"H",2013-03-22,"H",2013-02-06,2013-03-22,"Y",2013-04-04,"DISCONTINUED","WITHDRAWAL BY SUBJECT","PATCH DISCOMFORT",2013-02-06,1931-01-22,82,"YEARS",">50",3,,"Y",2013-04-04,97,"VS"
"CDISCPILOT01","01-708-1286","1286","2013-09-10","2014-03-08","2013-09-10","2014-03-08",,"2014-03-08T09:50",,,"708","1933-08-25",80,"YEARS","F","BLACK OR AFRICAN AMERICAN","NOT HISPANIC OR LATINO","Pbo","Placebo","Pbo","Placebo","USA","2013-08-25",-16,,,"Placebo","Placebo",2013-09-10,"H",2014-03-08,"H",2013-09-10,2014-03-08,"Y",2014-03-08,"COMPLETED",,,2013-09-10,1933-08-25,80,"YEARS",">50",3,,"Y",2014-03-08,,"ADSL"
"CDISCPILOT01","01-708-1296","1296","2013-06-14","2013-12-12","2013-06-14","2013-12-12",,"2013-12-12T09:30",,,"708","1956-06-07",57,"YEARS","M","BLACK OR AFRICAN AMERICAN","NOT HISPANIC OR LATINO","Pbo","Placebo","Pbo","Placebo","USA","2013-06-07",-7,,,"Placebo","Placebo",2013-06-14,"H",2013-12-12,"H",2013-06-14,2013-12-12,"Y",2013-12-12,"COMPLETED",,,2013-06-14,1956-06-07,57,"YEARS",">50",3,,"Y",2013-12-12,,"ADSL"
"CDISCPILOT01","01-708-1297","1297","2013-01-25","2013-05-08","2013-01-25","2013-05-03",,"2013-06-07",,,"708","1952-01-15",61,"YEARS","M","WHITE","NOT HISPANIC OR LATINO","Xan_Lo","Xanomeline Low Dose","Xan_Lo","Xanomeline Low Dose","USA","2013-01-15",-10,,,"Xanomeline Low Dose","Xanomeline Low Dose",2013-01-25,"H",2013-05-03,"H",2013-01-25,2013-05-03,"Y",2013-05-08,"DISCONTINUED","ADVERSE EVENT","ADVERSE EVENT",2013-01-25,1952-01-15,61,"YEARS",">50",3,,"Y",2013-05-08,119,"VS"
"CDISCPILOT01","01-708-1316","1316","2013-08-23","2014-03-01","2013-08-23","2014-03-01",,"2014-03-01T10:25",,,"708","1939-08-15",74,"YEARS","F","WHITE","NOT HISPANIC OR LATINO","Pbo","Placebo","Pbo","Placebo","USA","2013-08-15",-8,,,"Placebo","Placebo",2013-08-23,"H",2014-03-01,"H",2013-08-23,2014-03-01,"Y",2014-03-01,"COMPLETED",,,2013-08-23,1939-08-15,74,"YEARS",">50",3,,"Y",2014-03-01,,"ADSL"
"CDISCPILOT01","01-708-1336","1336","2012-12-07","2013-06-05","2012-12-07","2013-06-05",,"2013-07-05",,,"708","1939-11-21",73,"YEARS","M","WHITE","NOT HISPANIC OR LATINO","Xan_Hi","Xanomeline High Dose","Xan_Hi","Xanomeline High Dose","USA","2012-11-21",-16,,,"Xanomeline High Dose","Xanomeline High Dose",2012-12-07,"H",2013-06-05,"H",2012-12-07,2013-06-05,"Y",2013-06-05,"COMPLETED",,,2012-12-07,1939-11-21,73,"YEARS",">50",3,,"Y",2013-06-05,,"ADSL"
"CDISCPILOT01","01-708-1342","1342","2012-12-29","2013-06-28","2012-12-29","2013-06-28",,"2013-06-28T09:40",,,"708","1953-12-21",59,"YEARS","F","WHITE","NOT HISPANIC OR LATINO","Pbo","Placebo","Pbo","Placebo","USA","2012-12-21",-8,,,"Placebo","Placebo",2012-12-29,"H",2013-06-28,"H",2012-12-29,2013-06-28,"Y",2013-06-28,"COMPLETED",,,2012-12-29,1953-12-21,59,"YEARS",">50",3,,"Y",2013-06-28,,"ADSL"
"CDISCPILOT01","01-708-1347","1347","2013-04-20","2013-06-18","2013-04-20","2013-06-18",,"2013-08-02",,,"708","1952-04-11",61,"YEARS","F","WHITE","NOT HISPANIC OR LATINO","Xan_Hi","Xanomeline High Dose","Xan_Hi","Xanomeline High Dose","USA","2013-04-11",-9,,,"Xanomeline High Dose","Xanomeline High Dose",2013-04-20,"H",2013-06-18,"H",2013-04-20,2013-06-18,"Y",2013-06-18,"DISCONTINUED","ADVERSE EVENT","ADVERSE EVENT",2013-04-20,1952-04-11,61,"YEARS",">50",3,,"Y",2013-06-18,,"ADSL"
"CDISCPILOT01","01-708-1348","1348","2013-08-05","2014-02-13","2013-08-05","2014-02-13",,"2014-02-13T10:25",,,"708","1934-07-28",79,"YEARS","F","WHITE","NOT HISPANIC OR LATINO","Xan_Lo","Xanomeline Low Dose","Xan_Lo","Xanomeline Low Dose","USA","2013-07-28",-8,,,"Xanomeline Low Dose","Xanomeline Low Dose",2013-08-05,"H",2014-02-13,"H",2013-08-05,2014-02-13,"Y",2014-02-13,"COMPLETED",,,2013-08-05,1934-07-28,79,"YEARS",">50",3,,"Y",2014-02-13,,"ADSL"
"CDISCPILOT01","01-708-1352","1352",,,,,,"2013-09-29",,,"708","1926-09-16",87,"YEARS","F","WHITE","NOT HISPANIC OR LATINO","Scrnfail","Screen Failure","Scrnfail","Screen Failure","USA","2013-09-16",,"SCREEN FAILURE",,"Screen Failure","Screen Failure",,,,,,,"Y",,,,,,1926-09-16,,,">50",3,,"N",2013-09-16,1,"DS"
"CDISCPILOT01","01-708-1353","1353","2013-07-04","2013-09-10","2013-07-04","2013-08-28",,"2013-09-10T13:15",,,"708","1926-06-17",87,"YEARS","F","BLACK OR AFRICAN AMERICAN","NOT HISPANIC OR LATINO","Xan_Lo","Xanomeline Low Dose","Xan_Lo","Xanomeline Low Dose","USA","2013-06-17",-17,,,"Xanomeline Low Dose","Xanomeline Low Dose",2013-07-04,"H",2013-08-28,"H",2013-07-04,2013-08-28,"Y",2013-09-10,"DISCONTINUED","ADVERSE EVENT","ADVERSE EVENT",2013-07-04,1926-06-17,87,"YEARS",">50",3,,"Y",2013-09-10,87,"VS"
"CDISCPILOT01","01-708-1372","1372","2013-04-12","2013-05-10","2013-04-12","2013-04-19",,"2013-05-10",,,"708","1929-04-03",84,"YEARS","M","WHITE","NOT HISPANIC OR LATINO","Xan_Hi","Xanomeline High Dose","Xan_Lo","Xanomeline Low Dose","USA","2013-04-03",-9,,,"Xanomeline High Dose","Xanomeline Low Dose",2013-04-12,"H",2013-04-19,"H",2013-04-12,2013-04-19,"Y",2013-05-10,"DISCONTINUED","PROTOCOL VIOLATION","PROTOCOL ENTRY CRITERIA NOT MET",2013-04-12,1929-04-03,84,"YEARS",">50",3,,"Y",2013-05-10,41,"VS"
"CDISCPILOT01","01-708-1378","1378","2013-09-03","2014-01-28","2013-09-03","2014-01-28",,"2014-01-28T13:00",,,"708","1946-08-24",67,"YEARS","M","BLACK OR AFRICAN AMERICAN","NOT HISPANIC OR LATINO","Pbo","Placebo","Pbo","Placebo","USA","2013-08-24",-10,,,"Placebo","Placebo",2013-09-03,"H",2014-01-28,"H",2013-09-03,2014-01-28,"Y",2014-01-28,"DISCONTINUED","STUDY TERMINATED BY SPONSOR","SPONSOR DECISION (STUDY OR PATIENT DISCONTINUED BY THE SPONSOR)",2013-09-03,1946-08-24,67,"YEARS",">50",3,,"Y",2014-01-28,,"ADSL"
"CDISCPILOT01","01-708-1406","1406","2013-12-26","2014-07-02","2013-12-26","2014-07-02",,"2014-07-02T13:45",,,"708","1942-12-06",71,"YEARS","F","WHITE","NOT HISPANIC OR LATINO","Xan_Hi","Xanomeline High Dose","Xan_Hi","Xanomeline High Dose","USA","2013-12-06",-20,,,"Xanomeline High Dose","Xanomeline High Dose",2013-12-26,"H",2014-07-02,"H",2013-12-26,2014-07-02,"Y",2014-07-02,"COMPLETED",,,2013-12-26,1942-12-06,71,"YEARS",">50",3,,"Y",2014-07-02,,"ADSL"
"CDISCPILOT01","01-708-1428","1428","2013-11-09","2014-01-31","2013-11-09","2013-12-14",,"2014-01-31T11:10",,,"708","1929-11-02",84,"YEARS","F","WHITE","NOT HISPANIC OR LATINO","Xan_Lo","Xanomeline Low Dose","Xan_Lo","Xanomeline Low Dose","USA","2013-11-02",-7,,,"Xanomeline Low Dose","Xanomeline Low Dose",2013-11-09,"H",2013-12-14,"H",2013-11-09,2013-12-14,"Y",2014-01-31,"DISCONTINUED","ADVERSE EVENT","ADVERSE EVENT",2013-11-09,1929-11-02,84,"YEARS",">50",3,,"Y",2014-01-31,97,"VS"
"CDISCPILOT01","01-709-1001","1001","2013-10-08","2014-04-08","2013-10-08","2014-04-08",,"2014-04-08",,,"709","1937-09-20",76,"YEARS","F","WHITE","NOT HISPANIC OR LATINO","Pbo","Placebo","Pbo","Placebo","USA","2013-09-20",-18,,,"Placebo","Placebo",2013-10-08,"H",2014-04-08,"H",2013-10-08,2014-04-08,"Y",2014-04-08,"COMPLETED",,,2013-10-08,1937-09-20,76,"YEARS",">50",3,,"Y",2014-04-08,,"ADSL"
"CDISCPILOT01","01-709-1007","1007","2012-07-31","2012-09-01","2012-07-31","2012-08-28",,"2012-09-07",,,"709","1958-07-21",54,"YEARS","F","WHITE","NOT HISPANIC OR LATINO","Xan_Lo","Xanomeline Low Dose","Xan_Lo","Xanomeline Low Dose","USA","2012-07-21",-10,,,"Xanomeline Low Dose","Xanomeline Low Dose",2012-07-31,"H",2012-08-28,"H",2012-07-31,2012-08-28,"Y",2012-09-01,"DISCONTINUED","ADVERSE EVENT","ADVERSE EVENT",2012-07-31,1958-07-21,54,"YEARS",">50",3,,"Y",2012-09-01,65,"VS"
"CDISCPILOT01","01-709-1020","1020","2012-12-01","2013-06-01","2012-12-01","2013-06-01",,"2013-06-01T10:40",,,"709","1940-11-22",72,"YEARS","F","WHITE","NOT HISPANIC OR LATINO","Xan_Lo","Xanomeline Low Dose","Xan_Lo","Xanomeline Low Dose","USA","2012-11-22",-9,,,"Xanomeline Low Dose","Xanomeline Low Dose",2012-12-01,"H",2013-06-01,"H",2012-12-01,2013-06-01,"Y",2013-06-01,"COMPLETED",,,2012-12-01,1940-11-22,72,"YEARS",">50",3,,"Y",2013-06-01,,"ADSL"
"CDISCPILOT01","01-709-1029","1029","2012-12-25","2013-06-26","2012-12-25","2013-06-26",,"2013-06-26T10:58",,,"709","1930-12-10",82,"YEARS","M","WHITE","NOT HISPANIC OR LATINO","Xan_Hi","Xanomeline High Dose","Xan_Hi","Xanomeline High Dose","USA","2012-12-10",-15,,,"Xanomeline High Dose","Xanomeline High Dose",2012-12-25,"H",2013-06-26,"H",2012-12-25,2013-06-26,"Y",2013-06-26,"COMPLETED",,,2012-12-25,1930-12-10,82,"YEARS",">50",3,,"Y",2013-06-26,,"ADSL"
"CDISCPILOT01","01-709-1081","1081","2014-01-18","2014-05-10","2014-01-18","2014-04-27",,"2014-05-10T11:15",,,"709","1928-01-09",86,"YEARS","F","WHITE","NOT HISPANIC OR LATINO","Xan_Lo","Xanomeline Low Dose","Xan_Lo","Xanomeline Low Dose","USA","2014-01-09",-9,,,"Xanomeline Low Dose","Xanomeline Low Dose",2014-01-18,"H",2014-04-27,"H",2014-01-18,2014-04-27,"Y",2014-05-10,"DISCONTINUED","ADVERSE EVENT","ADVERSE EVENT",2014-01-18,1928-01-09,86,"YEARS",">50",3,,"Y",2014-05-10,109,"VS"
"CDISCPILOT01","01-709-1088","1088","2014-04-12","2014-10-09","2014-04-12","2014-10-09",,"2014-10-09T13:25",,,"709","1945-03-30",69,"YEARS","M","WHITE","NOT HISPANIC OR LATINO","Pbo","Placebo","Pbo","Placebo","USA","2014-03-30",-13,,,"Placebo","Placebo",2014-04-12,"H",2014-10-09,"H",2014-04-12,2014-10-09,"Y",2014-10-09,"COMPLETED",,,2014-04-12,1945-03-30,69,"YEARS",">50",3,,"Y",2014-10-09,,"ADSL"
"CDISCPILOT01","01-709-1099","1099","2013-10-25","2014-04-25","2013-10-25","2014-04-25",,"2014-04-25T09:10",,,"709","1934-10-14",79,"YEARS","F","WHITE","NOT HISPANIC OR LATINO","Xan_Hi","Xanomeline High Dose","Xan_Hi","Xanomeline High Dose","USA","2013-10-14",-11,,,"Xanomeline High Dose","Xanomeline High Dose",2013-10-25,"H",2014-04-25,"H",2013-10-25,2014-04-25,"Y",2014-04-25,"COMPLETED",,,2013-10-25,1934-10-14,79,"YEARS",">50",3,,"Y",2014-04-25,,"ADSL"
"CDISCPILOT01","01-709-1102","1102","2013-01-15","2013-03-31","2013-01-15","2013-03-27",,"2013-05-12",,,"709","1942-01-07",71,"YEARS","F","WHITE","NOT HISPANIC OR LATINO","Xan_Lo","Xanomeline Low Dose","Xan_Lo","Xanomeline Low Dose","USA","2013-01-07",-8,,,"Xanomeline Low Dose","Xanomeline Low Dose",2013-01-15,"H",2013-03-27,"H",2013-01-15,2013-03-27,"Y",2013-03-31,"DISCONTINUED","ADVERSE EVENT","ADVERSE EVENT",2013-01-15,1942-01-07,71,"YEARS",">50",3,,"Y",2013-03-31,107,"VS"
"CDISCPILOT01","01-709-1168","1168","2013-08-02","2013-09-27","2013-08-02","2013-09-26",,"2013-11-01",,,"709","1941-07-25",72,"YEARS","F","WHITE","NOT HISPANIC OR LATINO","Xan_Hi","Xanomeline High Dose","Xan_Hi","Xanomeline High Dose","USA","2013-07-25",-8,,,"Xanomeline High Dose","Xanomeline High Dose",2013-08-02,"H",2013-09-26,"H",2013-08-02,2013-09-26,"Y",2013-09-27,"DISCONTINUED","ADVERSE EVENT","ADVERSE EVENT",2013-08-02,1941-07-25,72,"YEARS",">50",3,,"Y",2013-09-27,87,"VS"
"CDISCPILOT01","01-709-1217","1217","2013-03-04","2013-06-25","2013-03-04","2013-06-11",,"2013-06-25T10:35",,,"709","1936-02-16",77,"YEARS","M","WHITE","NOT HISPANIC OR LATINO","Xan_Lo","Xanomeline Low Dose","Xan_Lo","Xanomeline Low Dose","USA","2013-02-16",-16,,,"Xanomeline Low Dose","Xanomeline Low Dose",2013-03-04,"H",2013-06-11,"H",2013-03-04,2013-06-11,"Y",2013-06-25,"DISCONTINUED","ADVERSE EVENT","ADVERSE EVENT",2013-03-04,1936-02-16,77,"YEARS",">50",3,,"Y",2013-06-25,119,"VS"
"CDISCPILOT01","01-709-1224","1224",,,,,,"2013-11-24",,,"709","1929-11-18",84,"YEARS","M","WHITE","NOT HISPANIC OR LATINO","Scrnfail","Screen Failure","Scrnfail","Screen Failure","USA","2013-11-18",,"SCREEN FAILURE",,"Screen Failure","Screen Failure",,,,,,,"Y",,,,,,1929-11-18,,,">50",3,,"N",2013-11-18,1,"DS"
"CDISCPILOT01","01-709-1237","1237",,,,,,"2014-03-04",,,"709","1926-01-17",88,"YEARS","F","WHITE","HISPANIC OR LATINO","Scrnfail","Screen Failure","Scrnfail","Screen Failure","USA","2014-01-17",,"SCREEN FAILURE",,"Screen Failure","Screen Failure",,,,,,,"Y",,,,,,1926-01-17,,,">50",3,,"N",2014-01-17,1,"DS"
"CDISCPILOT01","01-709-1238","1238","2013-05-15","2013-08-07","2013-05-15","2013-08-06",,"2013-08-13",,,"709","1944-05-02",69,"YEARS","M","WHITE","NOT HISPANIC OR LATINO","Xan_Hi","Xanomeline High Dose","Xan_Hi","Xanomeline High Dose","USA","2013-05-02",-13,,,"Xanomeline High Dose","Xanomeline High Dose",2013-05-15,"H",2013-08-06,"H",2013-05-15,2013-08-06,"Y",2013-08-07,"DISCONTINUED","ADVERSE EVENT","ADVERSE EVENT",2013-05-15,1944-05-02,69,"YEARS",">50",3,,"Y",2013-08-07,98,"VS"
"CDISCPILOT01","01-709-1259","1259","2013-01-26","2013-06-13","2013-01-26","2013-06-13",,"2013-06-13T12:23",,,"709","1931-01-13",82,"YEARS","M","WHITE","NOT HISPANIC OR LATINO","Pbo","Placebo","Pbo","Placebo","USA","2013-01-13",-13,,,"Placebo","Placebo",2013-01-26,"H",2013-06-13,"H",2013-01-26,2013-06-13,"Y",2013-06-13,"DISCONTINUED","LACK OF EFFICACY","LACK OF EFFICACY, PATIENT CAREGIVER PERCEPTION",2013-01-26,1931-01-13,82,"YEARS",">50",3,,"Y",2013-06-13,,"ADSL"
"CDISCPILOT01","01-709-1285","1285","2013-03-24","2013-05-31","2013-03-24","2013-05-23",,"2013-05-31T13:15",,,"709","1926-03-17",87,"YEARS","M","WHITE","NOT HISPANIC OR LATINO","Xan_Lo","Xanomeline Low Dose","Xan_Lo","Xanomeline Low Dose","USA","2013-03-17",-7,,,"Xanomeline Low Dose","Xanomeline Low Dose",2013-03-24,"H",2013-05-23,"H",2013-03-24,2013-05-23,"Y",2013-05-31,"DISCONTINUED","STUDY TERMINATED BY SPONSOR","SPONSOR DECISION (STUDY OR PATIENT DISCONTINUED BY THE SPONSOR)",2013-03-24,1926-03-17,87,"YEARS",">50",3,,"Y",2013-05-31,108,"VS"
"CDISCPILOT01","01-709-1301","1301","2013-07-19","2014-01-17","2013-07-19","2014-01-17",,"2014-01-17T10:07",,,"709","1951-07-14",62,"YEARS","F","WHITE","NOT HISPANIC OR LATINO","Pbo","Placebo","Pbo","Placebo","USA","2013-07-14",-5,,,"Placebo","Placebo",2013-07-19,"H",2014-01-17,"H",2013-07-19,2014-01-17,"Y",2014-01-17,"COMPLETED",,,2013-07-19,1951-07-14,62,"YEARS",">50",3,,"Y",2014-01-17,,"ADSL"
"CDISCPILOT01","01-709-1306","1306","2014-02-03","2014-06-25","2014-02-03","2014-06-16",,"2014-06-25T10:45",,,"709","1954-01-19",60,"YEARS","F","WHITE","NOT HISPANIC OR LATINO","Pbo","Placebo","Pbo","Placebo","USA","2014-01-19",-15,,,"Placebo","Placebo",2014-02-03,"H",2014-06-16,"H",2014-02-03,2014-06-16,"Y",2014-06-25,"DISCONTINUED","ADVERSE EVENT","ADVERSE EVENT",2014-02-03,1954-01-19,60,"YEARS",">50",3,,"Y",2014-06-25,130,"VS"
"CDISCPILOT01","01-709-1309","1309","2013-06-19","2013-12-19","2013-06-19","2013-12-19",,"2013-12-19T10:35",,,"709","1948-06-09",65,"YEARS","M","WHITE","NOT HISPANIC OR LATINO","Xan_Hi","Xanomeline High Dose","Xan_Hi","Xanomeline High Dose","USA","2013-06-09",-10,,,"Xanomeline High Dose","Xanomeline High Dose",2013-06-19,"H",2013-12-19,"H",2013-06-19,2013-12-19,"Y",2013-12-19,"COMPLETED",,,2013-06-19,1948-06-09,65,"YEARS",">50",3,,"Y",2013-12-19,,"ADSL"
"CDISCPILOT01","01-709-1312","1312","2014-04-20","2014-10-19","2014-04-20","2014-10-19",,"2014-10-19T10:00",,,"709","1946-04-13",68,"YEARS","F","WHITE","NOT HISPANIC OR LATINO","Pbo","Placebo","Pbo","Placebo","USA","2014-04-13",-7,,,"Placebo","Placebo",2014-04-20,"H",2014-10-19,"H",2014-04-20,2014-10-19,"Y",2014-10-19,"COMPLETED",,,2014-04-20,1946-04-13,68,"YEARS",">50",3,,"Y",2014-10-19,,"ADSL"
"CDISCPILOT01","01-709-1326","1326","2013-04-05","2013-10-02","2013-04-05","2013-10-02",,"2013-10-02T09:40",,,"709","1938-03-21",75,"YEARS","F","WHITE","NOT HISPANIC OR LATINO","Xan_Lo","Xanomeline Low Dose","Xan_Lo","Xanomeline Low Dose","USA","2013-03-21",-15,,,"Xanomeline Low Dose","Xanomeline Low Dose",2013-04-05,"H",2013-10-02,"H",2013-04-05,2013-10-02,"Y",2013-10-02,"COMPLETED",,,2013-04-05,1938-03-21,75,"YEARS",">50",3,,"Y",2013-10-02,,"ADSL"
"CDISCPILOT01","01-709-1329","1329","2013-08-15","2013-08-29","2013-08-15","2013-08-25",,"2013-08-29T10:35",,,"709","1943-08-01",70,"YEARS","M","WHITE","NOT HISPANIC OR LATINO","Xan_Hi","Xanomeline High Dose","Xan_Lo","Xanomeline Low Dose","USA","2013-08-01",-14,,,"Xanomeline High Dose","Xanomeline Low Dose",2013-08-15,"H",2013-08-25,"H",2013-08-15,2013-08-25,"Y",2013-08-29,"DISCONTINUED","WITHDRAWAL BY SUBJECT","CAREGIVER BURDEN",2013-08-15,1943-08-01,70,"YEARS",">50",3,,"Y",2013-08-29,44,"VS"
"CDISCPILOT01","01-709-1339","1339","2012-12-23","2013-06-24","2012-12-23","2013-06-24",,"2013-06-24T10:10",,,"709","1931-12-15",81,"YEARS","M","WHITE","NOT HISPANIC OR LATINO","Pbo","Placebo","Pbo","Placebo","USA","2012-12-15",-8,,,"Placebo","Placebo",2012-12-23,"H",2013-06-24,"H",2012-12-23,2013-06-24,"Y",2013-06-24,"COMPLETED",,,2012-12-23,1931-12-15,81,"YEARS",">50",3,,"Y",2013-06-24,,"ADSL"
"CDISCPILOT01","01-709-1424","1424","2013-03-03","2013-03-08","2013-03-03","2013-03-07",,"2013-03-17",,,"709","1936-02-15",77,"YEARS","M","WHITE","NOT HISPANIC OR LATINO","Xan_Hi","Xanomeline High Dose","Xan_Lo","Xanomeline Low Dose","USA","2013-02-15",-16,,,"Xanomeline High Dose","Xanomeline Low Dose",2013-03-03,"H",2013-03-07,"H",2013-03-03,2013-03-07,"Y",2013-03-08,"DISCONTINUED","ADVERSE EVENT","ADVERSE EVENT",2013-03-03,1936-02-15,77,"YEARS",">50",3,,"Y",2013-03-17,3,"DS"
"CDISCPILOT01","01-710-1002","1002","2014-01-14","2014-01-18","2014-01-14","2014-01-18",,"2014-01-20",,,"710","1925-12-30",88,"YEARS","M","WHITE","NOT HISPANIC OR LATINO","Xan_Lo","Xanomeline Low Dose","Xan_Lo","Xanomeline Low Dose","USA","2013-12-30",-15,,,"Xanomeline Low Dose","Xanomeline Low Dose",2014-01-14,"H",2014-01-18,"H",2014-01-14,2014-01-18,"Y",2014-01-18,"DISCONTINUED","ADVERSE EVENT","ADVERSE EVENT",2014-01-14,1925-12-30,88,"YEARS",">50",3,,"Y",2014-01-18,,"ADSL"
"CDISCPILOT01","01-710-1006","1006","2013-02-10","2013-08-10","2013-02-10","2013-08-09",,"2013-08-10T10:10",,,"710","1936-01-27",77,"YEARS","M","WHITE","NOT HISPANIC OR LATINO","Xan_Hi","Xanomeline High Dose","Xan_Hi","Xanomeline High Dose","USA","2013-01-27",-14,,,"Xanomeline High Dose","Xanomeline High Dose",2013-02-10,"H",2013-08-09,"H",2013-02-10,2013-08-09,"Y",2013-08-10,"COMPLETED",,,2013-02-10,1936-01-27,77,"YEARS",">50",3,,"Y",2013-08-10,152,"VS"
"CDISCPILOT01","01-710-1021","1021","2013-09-27","2013-11-12","2013-09-27","2013-10-29",,"2013-11-22",,,"710","1934-09-19",79,"YEARS","M","BLACK OR AFRICAN AMERICAN","NOT HISPANIC OR LATINO","Xan_Hi","Xanomeline High Dose","Xan_Hi","Xanomeline High Dose","USA","2013-09-19",-8,,,"Xanomeline High Dose","Xanomeline High Dose",2013-09-27,"H",2013-10-29,"H",2013-09-27,2013-10-29,"Y",2013-11-12,"DISCONTINUED","ADVERSE EVENT","ADVERSE EVENT",2013-09-27,1934-09-19,79,"YEARS",">50",3,,"Y",2013-11-12,86,"VS"
"CDISCPILOT01","01-710-1027","1027","2014-02-28","2014-08-29","2014-02-28","2014-08-29",,"2014-08-29T11:05",,,"710","1931-02-03",83,"YEARS","M","WHITE","NOT HISPANIC OR LATINO","Pbo","Placebo","Pbo","Placebo","USA","2014-02-03",-25,,,"Placebo","Placebo",2014-02-28,"H",2014-08-29,"H",2014-02-28,2014-08-29,"Y",2014-08-29,"COMPLETED",,,2014-02-28,1931-02-03,83,"YEARS",">50",3,,"Y",2014-08-29,,"ADSL"
"CDISCPILOT01","01-710-1045","1045","2013-06-03","2013-08-17","2013-06-03","2013-08-13",,"2013-09-08",,,"710","1930-05-20",83,"YEARS","F","WHITE","NOT HISPANIC OR LATINO","Xan_Lo","Xanomeline Low Dose","Xan_Lo","Xanomeline Low Dose","USA","2013-05-20",-14,,,"Xanomeline Low Dose","Xanomeline Low Dose",2013-06-03,"H",2013-08-13,"H",2013-06-03,2013-08-13,"Y",2013-08-17,"DISCONTINUED","ADVERSE EVENT","ADVERSE EVENT",2013-06-03,1930-05-20,83,"YEARS",">50",3,,"Y",2013-08-17,108,"VS"
"CDISCPILOT01","01-710-1053","1053","2012-12-26","2013-02-15","2012-12-26","2013-02-10",,"2013-02-26T13:25",,,"710","1928-12-15",84,"YEARS","F","WHITE","NOT HISPANIC OR LATINO","Xan_Lo","Xanomeline Low Dose","Xan_Lo","Xanomeline Low Dose","USA","2012-12-15",-11,,,"Xanomeline Low Dose","Xanomeline Low Dose",2012-12-26,"H",2013-02-10,"H",2012-12-26,2013-02-10,"Y",2013-02-15,"DISCONTINUED","ADVERSE EVENT","ADVERSE EVENT",2012-12-26,1928-12-15,84,"YEARS",">50",3,,"Y",2013-02-26,3,"DS"
"CDISCPILOT01","01-710-1060","1060","2013-01-01","2013-07-05","2013-01-01","2013-07-05",,"2013-07-05T14:40",,,"710","1930-12-24",82,"YEARS","M","WHITE","NOT HISPANIC OR LATINO","Pbo","Placebo","Pbo","Placebo","USA","2012-12-24",-8,,,"Placebo","Placebo",2013-01-01,"H",2013-07-05,"H",2013-01-01,2013-07-05,"Y",2013-07-05,"COMPLETED",,,2013-01-01,1930-12-24,82,"YEARS",">50",3,,"Y",2013-07-05,,"ADSL"
"CDISCPILOT01","01-710-1070","1070","2012-09-08","2013-02-23","2012-09-08","2013-01-22",,"2013-07-04",,,"710","1927-08-28",85,"YEARS","F","WHITE","NOT HISPANIC OR LATINO","Xan_Hi","Xanomeline High Dose","Xan_Hi","Xanomeline High Dose","USA","2012-08-28",-11,,,"Xanomeline High Dose","Xanomeline High Dose",2012-09-08,"H",2013-01-22,"H",2012-09-08,2013-01-22,"Y",2013-02-23,"DISCONTINUED","ADVERSE EVENT","ADVERSE EVENT",2012-09-08,1927-08-28,85,"YEARS",">50",3,,"Y",2013-02-23,3,"DS"
"CDISCPILOT01","01-710-1077","1077","2013-11-17","2014-05-18","2013-11-17","2014-05-18",,"2014-05-18T09:50",,,"710","1937-11-03",76,"YEARS","F","WHITE","NOT HISPANIC OR LATINO","Pbo","Placebo","Pbo","Placebo","USA","2013-11-03",-14,,,"Placebo","Placebo",2013-11-17,"H",2014-05-18,"H",2013-11-17,2014-05-18,"Y",2014-05-18,"COMPLETED",,,2013-11-17,1937-11-03,76,"YEARS",">50",3,,"Y",2014-05-18,,"ADSL"
"CDISCPILOT01","01-710-1078","1078","2013-09-17","2014-03-23","2013-09-17","2014-03-23",,"2014-03-23T16:00",,,"710","1932-09-06",81,"YEARS","F","WHITE","NOT HISPANIC OR LATINO","Pbo","Placebo","Pbo","Placebo","USA","2013-09-06",-11,,,"Placebo","Placebo",2013-09-17,"H",2014-03-23,"H",2013-09-17,2014-03-23,"Y",2014-03-23,"COMPLETED",,,2013-09-17,1932-09-06,81,"YEARS",">50",3,,"Y",2014-03-23,,"ADSL"
"CDISCPILOT01","01-710-1083","1083","2013-07-22","2013-08-03","2013-07-22","2013-08-01",,"2013-08-03","2013-08-02","Y","710","1924-07-09",89,"YEARS","F","WHITE","NOT HISPANIC OR LATINO","Pbo","Placebo","Pbo","Placebo","USA","2013-07-09",-13,,,"Placebo","Placebo",2013-07-22,"H",2013-08-01,"H",2013-07-22,2013-08-01,"Y",2013-08-02,"DISCONTINUED","DEATH","DEATH",2013-07-22,1924-07-09,89,"YEARS",">50",3,2013-08-02,"Y",2013-08-02,3,"DS"
"CDISCPILOT01","01-710-1129","1129",,,,,,"2013-03-17",,,"710","1944-03-05",69,"YEARS","F","BLACK OR AFRICAN AMERICAN","NOT HISPANIC OR LATINO","Scrnfail","Screen Failure","Scrnfail","Screen Failure","USA","2013-03-05",,"SCREEN FAILURE",,"Screen Failure","Screen Failure",,,,,,,"Y",,,,,,1944-03-05,,,">50",3,,"N",2013-03-05,1,"DS"
"CDISCPILOT01","01-710-1137","1137","2013-10-11","2013-11-13","2013-10-11","2013-11-13",,"2013-11-25",,,"710","1934-10-03",79,"YEARS","F","BLACK OR AFRICAN AMERICAN","NOT HISPANIC OR LATINO","Xan_Hi","Xanomeline High Dose","Xan_Hi","Xanomeline High Dose","USA","2013-10-03",-8,,,"Xanomeline High Dose","Xanomeline High Dose",2013-10-11,"H",2013-11-13,"H",2013-10-11,2013-11-13,"Y",2013-11-13,"DISCONTINUED","ADVERSE EVENT","ADVERSE EVENT",2013-10-11,1934-10-03,79,"YEARS",">50",3,,"Y",2013-11-13,,"ADSL"
"CDISCPILOT01","01-710-1142","1142","2012-10-02","2012-10-23","2012-10-02","2012-10-20",,"2012-10-28",,,"710","1936-09-12",76,"YEARS","F","WHITE","NOT HISPANIC OR LATINO","Xan_Hi","Xanomeline High Dose","Xan_Hi","Xanomeline High Dose","USA","2012-09-12",-20,,,"Xanomeline High Dose","Xanomeline High Dose",2012-10-02,"H",2012-10-20,"H",2012-10-02,2012-10-20,"Y",2012-10-23,"DISCONTINUED","ADVERSE EVENT","ADVERSE EVENT",2012-10-02,1936-09-12,76,"YEARS",">50",3,,"Y",2012-10-23,65,"VS"
"CDISCPILOT01","01-710-1149","1149",,,,,,"2013-12-01",,,"710","1934-11-16",79,"YEARS","F","WHITE","NOT HISPANIC OR LATINO","Scrnfail","Screen Failure","Scrnfail","Screen Failure","USA","2013-11-16",,"SCREEN FAILURE",,"Screen Failure","Screen Failure",,,,,,,"Y",,,,,,1934-11-16,,,">50",3,,"N",2013-11-16,1,"DS"
"CDISCPILOT01","01-710-1154","1154","2014-03-29","2014-05-09","2014-03-29","2014-04-27",,"2014-06-13",,,"710","1930-03-08",84,"YEARS","M","WHITE","HISPANIC OR LATINO","Xan_Lo","Xanomeline Low Dose","Xan_Lo","Xanomeline Low Dose","USA","2014-03-08",-21,,,"Xanomeline Low Dose","Xanomeline Low Dose",2014-03-29,"H",2014-04-27,"H",2014-03-29,2014-04-27,"Y",2014-05-09,"DISCONTINUED","ADVERSE EVENT","ADVERSE EVENT",2014-03-29,1930-03-08,84,"YEARS",">50",3,,"Y",2014-05-09,66,"VS"
"CDISCPILOT01","01-710-1166","1166","2012-11-30","2013-03-30","2012-11-30","2013-03-19",,"2013-05-22",,,"710","1931-11-10",81,"YEARS","F","WHITE","NOT HISPANIC OR LATINO","Xan_Lo","Xanomeline Low Dose","Xan_Lo","Xanomeline Low Dose","USA","2012-11-10",-20,,,"Xanomeline Low Dose","Xanomeline Low Dose",2012-11-30,"H",2013-03-19,"H",2012-11-30,2013-03-19,"Y",2013-03-30,"DISCONTINUED","ADVERSE EVENT","ADVERSE EVENT",2012-11-30,1931-11-10,81,"YEARS",">50",3,,"Y",2013-03-30,119,"VS"
"CDISCPILOT01","01-710-1183","1183","2013-11-16","2014-05-17","2013-11-16","2014-05-17",,"2014-05-17T11:55",,,"710","1933-10-24",80,"YEARS","F","WHITE","NOT HISPANIC OR LATINO","Pbo","Placebo","Pbo","Placebo","USA","2013-10-24",-23,,,"Placebo","Placebo",2013-11-16,"H",2014-05-17,"H",2013-11-16,2014-05-17,"Y",2014-05-17,"COMPLETED",,,2013-11-16,1933-10-24,80,"YEARS",">50",3,,"Y",2014-05-17,,"ADSL"
"CDISCPILOT01","01-710-1187","1187","2012-11-10","2013-05-12","2012-11-10","2013-05-12",,"2013-05-12T11:05",,,"710","1934-10-26",78,"YEARS","F","WHITE","NOT HISPANIC OR LATINO","Xan_Hi","Xanomeline High Dose","Xan_Hi","Xanomeline High Dose","USA","2012-10-26",-15,,,"Xanomeline High Dose","Xanomeline High Dose",2012-11-10,"H",2013-05-12,"H",2012-11-10,2013-05-12,"Y",2013-05-12,"COMPLETED",,,2012-11-10,1934-10-26,78,"YEARS",">50",3,,"Y",2013-05-12,,"ADSL"
"CDISCPILOT01","01-710-1235","1235","2012-09-26","2013-03-27","2012-09-26","2013-03-27",,"2013-03-27T09:35",,,"710","1956-09-13",56,"YEARS","F","WHITE","HISPANIC OR LATINO","Xan_Lo","Xanomeline Low Dose","Xan_Lo","Xanomeline Low Dose","USA","2012-09-13",-13,,,"Xanomeline Low Dose","Xanomeline Low Dose",2012-09-26,"H",2013-03-27,"H",2012-09-26,2013-03-27,"Y",2013-03-27,"COMPLETED",,,2012-09-26,1956-09-13,56,"YEARS",">50",3,,"Y",2013-03-27,,"ADSL"
"CDISCPILOT01","01-710-1249","1249","2013-12-28","2014-06-28","2013-12-28","2014-06-28",,"2014-06-28T11:05",,,"710","1934-12-19",79,"YEARS","M","WHITE","NOT HISPANIC OR LATINO","Xan_Hi","Xanomeline High Dose","Xan_Hi","Xanomeline High Dose","USA","2013-12-19",-9,,,"Xanomeline High Dose","Xanomeline High Dose",2013-12-28,"H",2014-06-28,"H",2013-12-28,2014-06-28,"Y",2014-06-28,"COMPLETED",,,2013-12-28,1934-12-19,79,"YEARS",">50",3,,"Y",2014-06-28,,"ADSL"
"CDISCPILOT01","01-710-1257","1257",,,,,,"2013-12-11",,,"710","1928-11-29",85,"YEARS","F","WHITE","NOT HISPANIC OR LATINO","Scrnfail","Screen Failure","Scrnfail","Screen Failure","USA","2013-11-29",,"SCREEN FAILURE",,"Screen Failure","Screen Failure",,,,,,,"Y",,,,,,1928-11-29,,,">50",3,,"N",2013-11-29,1,"DS"
"CDISCPILOT01","01-710-1264","1264","2013-06-13","2013-10-12","2013-06-13","2013-10-11",,"2013-11-05",,,"710","1935-06-02",78,"YEARS","M","WHITE","NOT HISPANIC OR LATINO","Pbo","Placebo","Pbo","Placebo","USA","2013-06-02",-11,,,"Placebo","Placebo",2013-06-13,"H",2013-10-11,"H",2013-06-13,2013-10-11,"Y",2013-10-12,"DISCONTINUED","ADVERSE EVENT","ADVERSE EVENT",2013-06-13,1935-06-02,78,"YEARS",">50",3,,"Y",2013-10-12,130,"VS"
"CDISCPILOT01","01-710-1270","1270","2014-02-12","2014-03-01","2014-02-12","2014-03-01",,"2014-03-26",,,"710","1931-02-01",83,"YEARS","F","WHITE","NOT HISPANIC OR LATINO","Xan_Lo","Xanomeline Low Dose","Xan_Lo","Xanomeline Low Dose","USA","2014-02-01",-11,,,"Xanomeline Low Dose","Xanomeline Low Dose",2014-02-12,"H",2014-03-01,"H",2014-02-12,2014-03-01,"Y",2014-03-01,"DISCONTINUED","ADVERSE EVENT","ADVERSE EVENT",2014-02-12,1931-02-01,83,"YEARS",">50",3,,"Y",2014-03-01,,"ADSL"
"CDISCPILOT01","01-710-1271","1271","2012-09-27","2012-12-02","2012-09-27","2012-11-21",,"2012-12-09",,,"710","1926-09-04",86,"YEARS","F","WHITE","NOT HISPANIC OR LATINO","Pbo","Placebo","Pbo","Placebo","USA","2012-09-04",-23,,,"Placebo","Placebo",2012-09-27,"H",2012-11-21,"H",2012-09-27,2012-11-21,"Y",2012-12-02,"DISCONTINUED","ADVERSE EVENT","ADVERSE EVENT",2012-09-27,1926-09-04,86,"YEARS",">50",3,,"Y",2012-12-02,3,"DS"
"CDISCPILOT01","01-710-1278","1278","2012-12-24","2013-03-03","2012-12-24","2013-02-26",,"2013-03-10",,,"710","1931-12-13",81,"YEARS","M","WHITE","NOT HISPANIC OR LATINO","Xan_Hi","Xanomeline High Dose","Xan_Hi","Xanomeline High Dose","USA","2012-12-13",-11,,,"Xanomeline High Dose","Xanomeline High Dose",2012-12-24,"H",2013-02-26,"H",2012-12-24,2013-02-26,"Y",2013-03-03,"DISCONTINUED","ADVERSE EVENT","ADVERSE EVENT",2012-12-24,1931-12-13,81,"YEARS",">50",3,,"Y",2013-03-07,3,"DS"
"CDISCPILOT01","01-710-1300","1300","2012-12-15","2013-02-19","2012-12-15","2013-02-15",,"2013-03-19",,,"710","1934-12-04",78,"YEARS","F","WHITE","NOT HISPANIC OR LATINO","Xan_Lo","Xanomeline Low Dose","Xan_Lo","Xanomeline Low Dose","USA","2012-12-04",-11,,,"Xanomeline Low Dose","Xanomeline Low Dose",2012-12-15,"H",2013-02-15,"H",2012-12-15,2013-02-15,"Y",2013-02-19,"DISCONTINUED","ADVERSE EVENT","ADVERSE EVENT",2012-12-15,1934-12-04,78,"YEARS",">50",3,,"Y",2013-02-19,108,"VS"
"CDISCPILOT01","01-710-1314","1314","2013-04-24","2013-05-25","2013-04-24","2013-05-23",,"2013-05-25",,,"710","1935-04-21",78,"YEARS","F","WHITE","NOT HISPANIC OR LATINO","Pbo","Placebo","Pbo","Placebo","USA","2013-04-21",-3,,,"Placebo","Placebo",2013-04-24,"H",2013-05-23,"H",2013-04-24,2013-05-23,"Y",2013-05-25,"DISCONTINUED","WITHDRAWAL BY SUBJECT","PATIENT REFUSES TO CONTINUE",2013-04-24,1935-04-21,78,"YEARS",">50",3,,"Y",2013-05-25,3,"DS"
"CDISCPILOT01","01-710-1315","1315","2013-02-27","2013-07-16","2013-02-27","2013-07-06",,"2013-09-02",,,"710","1930-02-12",83,"YEARS","F","WHITE","NOT HISPANIC OR LATINO","Pbo","Placebo","Pbo","Placebo","USA","2013-02-12",-15,,,"Placebo","Placebo",2013-02-27,"H",2013-07-06,"H",2013-02-27,2013-07-06,"Y",2013-07-16,"DISCONTINUED","ADVERSE EVENT","ADVERSE EVENT",2013-02-27,1930-02-12,83,"YEARS",">50",3,,"Y",2013-07-16,130,"VS"
"CDISCPILOT01","01-710-1337","1337",,,,,,"2014-01-26",,,"710","1940-12-30",73,"YEARS","M","WHITE","NOT HISPANIC OR LATINO","Scrnfail","Screen Failure","Scrnfail","Screen Failure","USA","2013-12-30",,"SCREEN FAILURE",,"Screen Failure","Screen Failure",,,,,,,"Y",,,,,,1940-12-30,,,">50",3,,"N",2013-12-30,1,"DS"
"CDISCPILOT01","01-710-1354","1354","2012-11-11","2013-05-01","2012-11-11","2013-05-01",,"2013-05-01T14:05",,,"710","1939-10-29",73,"YEARS","M","WHITE","NOT HISPANIC OR LATINO","Xan_Hi","Xanomeline High Dose","Xan_Hi","Xanomeline High Dose","USA","2012-10-29",-13,,,"Xanomeline High Dose","Xanomeline High Dose",2012-11-11,"H",2013-05-01,"H",2012-11-11,2013-05-01,"Y",2013-05-01,"COMPLETED",,,2012-11-11,1939-10-29,73,"YEARS",">50",3,,"Y",2013-05-01,,"ADSL"
"CDISCPILOT01","01-710-1358","1358","2012-09-17","2013-03-12","2012-09-17","2013-02-09",,"2013-03-12",,,"710","1930-09-02",82,"YEARS","M","WHITE","NOT HISPANIC OR LATINO","Xan_Lo","Xanomeline Low Dose","Xan_Lo","Xanomeline Low Dose","USA","2012-09-02",-15,,,"Xanomeline Low Dose","Xanomeline Low Dose",2012-09-17,"H",2013-02-09,"H",2012-09-17,2013-02-09,"Y",2013-03-12,"DISCONTINUED","WITHDRAWAL BY SUBJECT","CAREGIVER WAS HOSPITALIZED;SEE COMMENTS",2012-09-17,1930-09-02,82,"YEARS",">50",3,,"Y",2013-03-12,3,"DS"
"CDISCPILOT01","01-710-1368","1368","2013-10-23","2014-04-24","2013-10-23","2014-04-24",,"2014-04-24T10:10",,,"710","1925-10-21",88,"YEARS","F","WHITE","NOT HISPANIC OR LATINO","Pbo","Placebo","Pbo","Placebo","USA","2013-10-21",-2,,,"Placebo","Placebo",2013-10-23,"H",2014-04-24,"H",2013-10-23,2014-04-24,"Y",2014-04-24,"COMPLETED",,,2013-10-23,1925-10-21,88,"YEARS",">50",3,,"Y",2014-04-24,,"ADSL"
"CDISCPILOT01","01-710-1376","1376",,,,,,"2014-05-02",,,"710","1925-04-21",89,"YEARS","F","WHITE","NOT HISPANIC OR LATINO","Scrnfail","Screen Failure","Scrnfail","Screen Failure","USA","2014-04-21",,"SCREEN FAILURE",,"Screen Failure","Screen Failure",,,,,,,"Y",,,,,,1925-04-21,,,">50",3,,"N",2014-04-21,1,"DS"
"CDISCPILOT01","01-710-1380","1380",,,,,,"2013-06-12",,,"710","1933-06-02",80,"YEARS","F","WHITE","NOT HISPANIC OR LATINO","Scrnfail","Screen Failure","Scrnfail","Screen Failure","USA","2013-06-02",,"SCREEN FAILURE",,"Screen Failure","Screen Failure",,,,,,,"Y",,,,,,1933-06-02,,,">50",3,,"N",2013-06-02,1,"DS"
"CDISCPILOT01","01-710-1385","1385","2012-10-29","2013-02-18","2012-10-29","2013-02-18",,"2013-02-24",,,"710","1935-10-21",77,"YEARS","M","WHITE","NOT HISPANIC OR LATINO","Xan_Lo","Xanomeline Low Dose","Xan_Lo","Xanomeline Low Dose","USA","2012-10-21",-8,,,"Xanomeline Low Dose","Xanomeline Low Dose",2012-10-29,"H",2013-02-18,"H",2012-10-29,2013-02-18,"Y",2013-02-18,"DISCONTINUED","ADVERSE EVENT","ADVERSE EVENT",2012-10-29,1935-10-21,77,"YEARS",">50",3,,"Y",2013-02-18,,"ADSL"
"CDISCPILOT01","01-710-1408","1408","2013-01-05","2013-07-12","2013-01-05","2013-07-12",,"2013-07-12T14:35",,,"710","1932-12-26",80,"YEARS","M","WHITE","NOT HISPANIC OR LATINO","Xan_Hi","Xanomeline High Dose","Xan_Hi","Xanomeline High Dose","USA","2012-12-26",-10,,,"Xanomeline High Dose","Xanomeline High Dose",2013-01-05,"H",2013-07-12,"H",2013-01-05,2013-07-12,"Y",2013-07-12,"COMPLETED",,,2013-01-05,1932-12-26,80,"YEARS",">50",3,,"Y",2013-07-12,,"ADSL"
"CDISCPILOT01","01-710-1443","1443",,,,,,"2013-12-14",,,"710","1925-12-13",88,"YEARS","F","WHITE","NOT HISPANIC OR LATINO","Scrnfail","Screen Failure","Scrnfail","Screen Failure","USA","2013-12-13",,"SCREEN FAILURE",,"Screen Failure","Screen Failure",,,,,,,"Y",,,,,,1925-12-13,,,">50",3,,"N",2013-12-13,1,"DS"
"CDISCPILOT01","01-711-1012","1012","2013-04-03","2013-05-02","2013-04-03","2013-04-29",,"2013-09-18",,,"711","1946-03-20",67,"YEARS","F","WHITE","NOT HISPANIC OR LATINO","Xan_Hi","Xanomeline High Dose","Xan_Hi","Xanomeline High Dose","USA","2013-03-20",-14,,,"Xanomeline High Dose","Xanomeline High Dose",2013-04-03,"H",2013-04-29,"H",2013-04-03,2013-04-29,"Y",2013-05-02,"DISCONTINUED","ADVERSE EVENT","ADVERSE EVENT",2013-04-03,1946-03-20,67,"YEARS",">50",3,,"Y",2013-09-18,71,"VS"
"CDISCPILOT01","01-711-1022","1022",,,,,,"2014-03-17",,,"711","1928-03-17",86,"YEARS","F","WHITE","NOT HISPANIC OR LATINO","Scrnfail","Screen Failure","Scrnfail","Screen Failure","USA","2014-03-17",,"SCREEN FAILURE",,"Screen Failure","Screen Failure",,,,,,,"Y",,,,,,1928-03-17,,,">50",3,,"N",2014-03-17,1,"DS"
"CDISCPILOT01","01-711-1036","1036","2012-07-29","2013-02-10","2012-07-29","2013-02-10",,"2013-02-10T10:25",,,"711","1942-07-20",70,"YEARS","M","BLACK OR AFRICAN AMERICAN","NOT HISPANIC OR LATINO","Pbo","Placebo","Pbo","Placebo","USA","2012-07-20",-9,,,"Placebo","Placebo",2012-07-29,"H",2013-02-10,"H",2012-07-29,2013-02-10,"Y",2013-02-10,"COMPLETED",,,2012-07-29,1942-07-20,70,"YEARS",">50",3,,"Y",2013-02-10,,"ADSL"
"CDISCPILOT01","01-711-1143","1143","2013-04-03","2013-06-01","2013-04-03","2013-05-30",,"2013-09-22",,,"711","1937-03-30",76,"YEARS","F","WHITE","NOT HISPANIC OR LATINO","Xan_Lo","Xanomeline Low Dose","Xan_Lo","Xanomeline Low Dose","USA","2013-03-30",-4,,,"Xanomeline Low Dose","Xanomeline Low Dose",2013-04-03,"H",2013-05-30,"H",2013-04-03,2013-05-30,"Y",2013-06-01,"DISCONTINUED","ADVERSE EVENT","ADVERSE EVENT",2013-04-03,1937-03-30,76,"YEARS",">50",3,,"Y",2013-09-22,111,"VS"
"CDISCPILOT01","01-711-1163","1163",,,,,,"2012-11-08",,,"711","1938-11-08",74,"YEARS","F","BLACK OR AFRICAN AMERICAN","NOT HISPANIC OR LATINO","Scrnfail","Screen Failure","Scrnfail","Screen Failure","USA","2012-11-08",,"SCREEN FAILURE",,"Screen Failure","Screen Failure",,,,,,,"Y",,,,,,1938-11-08,,,">50",3,,"N",2012-11-08,1,"DS"
"CDISCPILOT01","01-711-1173","1173",,,,,,"2012-10-04",,,"711","1950-10-04",62,"YEARS","M","WHITE","NOT HISPANIC OR LATINO","Scrnfail","Screen Failure","Scrnfail","Screen Failure","USA","2012-10-04",,"SCREEN FAILURE",,"Screen Failure","Screen Failure",,,,,,,"Y",,,,,,1950-10-04,,,">50",3,,"N",2012-10-04,1,"DS"
"CDISCPILOT01","01-711-1226","1226",,,,,,"2013-10-24",,,"711","1939-10-24",74,"YEARS","F","WHITE","NOT HISPANIC OR LATINO","Scrnfail","Screen Failure","Scrnfail","Screen Failure","USA","2013-10-24",,"SCREEN FAILURE",,"Screen Failure","Screen Failure",,,,,,,"Y",,,,,,1939-10-24,,,">50",3,,"N",2013-10-24,1,"DS"
"CDISCPILOT01","01-711-1251","1251",,,,,,"2014-02-28",,,"711","1932-02-28",82,"YEARS","M","WHITE","NOT HISPANIC OR LATINO","Scrnfail","Screen Failure","Scrnfail","Screen Failure","USA","2014-02-28",,"SCREEN FAILURE",,"Screen Failure","Screen Failure",,,,,,,"Y",,,,,,1932-02-28,,,">50",3,,"N",2014-02-28,1,"DS"
"CDISCPILOT01","01-711-1283","1283",,,,,,"2014-03-27",,,"711","1939-03-27",75,"YEARS","F","BLACK OR AFRICAN AMERICAN","NOT HISPANIC OR LATINO","Scrnfail","Screen Failure","Scrnfail","Screen Failure","USA","2014-03-27",,"SCREEN FAILURE",,"Screen Failure","Screen Failure",,,,,,,"Y",,,,,,1939-03-27,,,">50",3,,"N",2014-03-27,1,"DS"
"CDISCPILOT01","01-711-1284","1284",,,,,,"2013-08-05",,,"711","1936-08-05",77,"YEARS","F","WHITE","NOT HISPANIC OR LATINO","Scrnfail","Screen Failure","Scrnfail","Screen Failure","USA","2013-08-05",,"SCREEN FAILURE",,"Screen Failure","Screen Failure",,,,,,,"Y",,,,,,1936-08-05,,,">50",3,,"N",2013-08-05,1,"DS"
"CDISCPILOT01","01-711-1290","1290",,,,,,"2013-12-20",,,"711","1952-12-20",61,"YEARS","F","WHITE","NOT HISPANIC OR LATINO","Scrnfail","Screen Failure","Scrnfail","Screen Failure","USA","2013-12-20",,"SCREEN FAILURE",,"Screen Failure","Screen Failure",,,,,,,"Y",,,,,,1952-12-20,,,">50",3,,"N",2013-12-20,1,"DS"
"CDISCPILOT01","01-711-1433","1433","2013-01-27","2013-02-06","2013-01-27","2013-02-05",,"2013-02-06T10:52",,,"711","1929-01-23",84,"YEARS","F","WHITE","NOT HISPANIC OR LATINO","Xan_Hi","Xanomeline High Dose","Xan_Lo","Xanomeline Low Dose","USA","2013-01-23",-4,,,"Xanomeline High Dose","Xanomeline Low Dose",2013-01-27,"H",2013-02-05,"H",2013-01-27,2013-02-05,"Y",2013-02-06,"DISCONTINUED","ADVERSE EVENT","ADVERSE EVENT",2013-01-27,1929-01-23,84,"YEARS",">50",3,,"Y",2013-02-06,41,"VS"
"CDISCPILOT01","01-713-1043","1043","2013-09-15","2014-03-24","2013-09-15","2014-03-24",,"2014-03-24T14:30",,,"713","1935-08-17",78,"YEARS","F","WHITE","NOT HISPANIC OR LATINO","Xan_Lo","Xanomeline Low Dose","Xan_Lo","Xanomeline Low Dose","USA","2013-08-17",-29,,,"Xanomeline Low Dose","Xanomeline Low Dose",2013-09-15,"H",2014-03-24,"H",2013-09-15,2014-03-24,"Y",2014-03-24,"COMPLETED",,,2013-09-15,1935-08-17,78,"YEARS",">50",3,,"Y",2014-03-24,,"ADSL"
"CDISCPILOT01","01-713-1073","1073","2014-03-30","2014-10-05","2014-03-30","2014-10-05",,"2014-10-05T10:30",,,"713","1940-03-15",74,"YEARS","F","BLACK OR AFRICAN AMERICAN","NOT HISPANIC OR LATINO","Xan_Lo","Xanomeline Low Dose","Xan_Lo","Xanomeline Low Dose","USA","2014-03-15",-15,,,"Xanomeline Low Dose","Xanomeline Low Dose",2014-03-30,"H",2014-10-05,"H",2014-03-30,2014-10-05,"Y",2014-10-05,"COMPLETED",,,2014-03-30,1940-03-15,74,"YEARS",">50",3,,"Y",2014-10-05,,"ADSL"
"CDISCPILOT01","01-713-1106","1106","2012-10-31","2013-05-06","2012-10-31","2013-05-06",,"2013-05-06T11:25",,,"713","1938-10-03",74,"YEARS","M","WHITE","NOT HISPANIC OR LATINO","Xan_Hi","Xanomeline High Dose","Xan_Hi","Xanomeline High Dose","USA","2012-10-03",-28,,,"Xanomeline High Dose","Xanomeline High Dose",2012-10-31,"H",2013-05-06,"H",2012-10-31,2013-05-06,"Y",2013-05-06,"COMPLETED",,,2012-10-31,1938-10-03,74,"YEARS",">50",3,,"Y",2013-05-06,,"ADSL"
"CDISCPILOT01","01-713-1141","1141","2013-05-31","2013-08-06","2013-05-31","2013-07-01",,"2013-08-06T12:00",,,"713","1934-05-23",79,"YEARS","M","WHITE","NOT HISPANIC OR LATINO","Xan_Hi","Xanomeline High Dose","Xan_Hi","Xanomeline High Dose","USA","2013-05-23",-8,,,"Xanomeline High Dose","Xanomeline High Dose",2013-05-31,"H",2013-07-01,"H",2013-05-31,2013-07-01,"Y",2013-08-06,"DISCONTINUED","ADVERSE EVENT","ADVERSE EVENT",2013-05-31,1934-05-23,79,"YEARS",">50",3,,"Y",2013-08-06,85,"VS"
"CDISCPILOT01","01-713-1179","1179","2013-08-09","2014-02-05","2013-08-09","2014-02-05",,"2014-02-05T15:15",,,"713","1949-07-11",64,"YEARS","F","WHITE","NOT HISPANIC OR LATINO","Pbo","Placebo","Pbo","Placebo","USA","2013-07-11",-29,,,"Placebo","Placebo",2013-08-09,"H",2014-02-05,"H",2013-08-09,2014-02-05,"Y",2014-02-05,"COMPLETED",,,2013-08-09,1949-07-11,64,"YEARS",">50",3,,"Y",2014-02-05,,"ADSL"
"CDISCPILOT01","01-713-1209","1209","2013-05-27","2013-11-22","2013-05-27","2013-11-22",,"2013-11-22T10:05",,,"713","1936-05-16",77,"YEARS","F","WHITE","NOT HISPANIC OR LATINO","Xan_Hi","Xanomeline High Dose","Xan_Hi","Xanomeline High Dose","USA","2013-05-16",-11,,,"Xanomeline High Dose","Xanomeline High Dose",2013-05-27,"H",2013-11-22,"H",2013-05-27,2013-11-22,"Y",2013-11-22,"COMPLETED",,,2013-05-27,1936-05-16,77,"YEARS",">50",3,,"Y",2013-11-22,,"ADSL"
"CDISCPILOT01","01-713-1256","1256","2012-09-19","2013-03-25","2012-09-19","2013-03-25",,"2013-03-25T10:30",,,"713","1941-09-10",71,"YEARS","M","WHITE","NOT HISPANIC OR LATINO","Pbo","Placebo","Pbo","Placebo","USA","2012-09-10",-9,,,"Placebo","Placebo",2012-09-19,"H",2013-03-25,"H",2012-09-19,2013-03-25,"Y",2013-03-25,"COMPLETED",,,2012-09-19,1941-09-10,71,"YEARS",">50",3,,"Y",2013-03-25,,"ADSL"
"CDISCPILOT01","01-713-1269","1269","2014-01-27","2014-07-28","2014-01-27","2014-07-28",,"2014-07-28T14:00",,,"713","1941-01-14",73,"YEARS","M","WHITE","NOT HISPANIC OR LATINO","Pbo","Placebo","Pbo","Placebo","USA","2014-01-14",-13,,,"Placebo","Placebo",2014-01-27,"H",2014-07-28,"H",2014-01-27,2014-07-28,"Y",2014-07-28,"COMPLETED",,,2014-01-27,1941-01-14,73,"YEARS",">50",3,,"Y",2014-07-28,,"ADSL"
"CDISCPILOT01","01-713-1448","1448","2014-01-19","2014-05-17","2014-01-19","2014-05-16",,"2014-07-27",,,"713","1943-01-05",71,"YEARS","F","WHITE","NOT HISPANIC OR LATINO","Xan_Lo","Xanomeline Low Dose","Xan_Lo","Xanomeline Low Dose","USA","2014-01-05",-14,,,"Xanomeline Low Dose","Xanomeline Low Dose",2014-01-19,"H",2014-05-16,"H",2014-01-19,2014-05-16,"Y",2014-05-17,"DISCONTINUED","ADVERSE EVENT","ADVERSE EVENT",2014-01-19,1943-01-05,71,"YEARS",">50",3,,"Y",2014-07-27,121,"VS"
"CDISCPILOT01","01-714-1035","1035","2014-04-17","2014-10-16","2014-04-17","2014-10-16",,"2014-10-16T12:00",,,"714","1926-04-03",88,"YEARS","F","WHITE","NOT HISPANIC OR LATINO","Pbo","Placebo","Pbo","Placebo","USA","2014-04-03",-14,,,"Placebo","Placebo",2014-04-17,"H",2014-10-16,"H",2014-04-17,2014-10-16,"Y",2014-10-16,"COMPLETED",,,2014-04-17,1926-04-03,88,"YEARS",">50",3,,"Y",2014-10-16,,"ADSL"
"CDISCPILOT01","01-714-1068","1068","2013-08-08","2013-10-16","2013-08-08","2013-10-08",,"2013-10-23",,,"714","1934-07-31",79,"YEARS","F","WHITE","NOT HISPANIC OR LATINO","Xan_Lo","Xanomeline Low Dose","Xan_Lo","Xanomeline Low Dose","USA","2013-07-31",-8,,,"Xanomeline Low Dose","Xanomeline Low Dose",2013-08-08,"H",2013-10-08,"H",2013-08-08,2013-10-08,"Y",2013-10-16,"DISCONTINUED","ADVERSE EVENT","ADVERSE EVENT",2013-08-08,1934-07-31,79,"YEARS",">50",3,,"Y",2013-10-16,108,"VS"
"CDISCPILOT01","01-714-1195","1195","2013-04-26","2013-10-23","2013-04-26","2013-10-23",,"2013-10-23T10:55",,,"714","1938-04-16",75,"YEARS","M","WHITE","NOT HISPANIC OR LATINO","Xan_Lo","Xanomeline Low Dose","Xan_Lo","Xanomeline Low Dose","USA","2013-04-16",-10,,,"Xanomeline Low Dose","Xanomeline Low Dose",2013-04-26,"H",2013-10-23,"H",2013-04-26,2013-10-23,"Y",2013-10-23,"COMPLETED",,,2013-04-26,1938-04-16,75,"YEARS",">50",3,,"Y",2013-10-23,,"ADSL"
"CDISCPILOT01","01-714-1288","1288","2013-12-04","2014-06-17","2013-12-04","2014-06-17",,"2014-06-17T13:00",,,"714","1936-11-24",77,"YEARS","M","BLACK OR AFRICAN AMERICAN","NOT HISPANIC OR LATINO","Xan_Hi","Xanomeline High Dose","Xan_Hi","Xanomeline High Dose","USA","2013-11-24",-10,,,"Xanomeline High Dose","Xanomeline High Dose",2013-12-04,"H",2014-06-17,"H",2013-12-04,2014-06-17,"Y",2014-06-17,"COMPLETED",,,2013-12-04,1936-11-24,77,"YEARS",">50",3,,"Y",2014-06-17,,"ADSL"
"CDISCPILOT01","01-714-1375","1375","2013-02-26","2013-09-07","2013-02-26","2013-09-07",,"2013-09-07T13:58",,,"714","1935-02-23",78,"YEARS","F","WHITE","NOT HISPANIC OR LATINO","Pbo","Placebo","Pbo","Placebo","USA","2013-02-23",-3,,,"Placebo","Placebo",2013-02-26,"H",2013-09-07,"H",2013-02-26,2013-09-07,"Y",2013-09-07,"COMPLETED",,,2013-02-26,1935-02-23,78,"YEARS",">50",3,,"Y",2013-09-07,,"ADSL"
"CDISCPILOT01","01-714-1425","1425","2013-08-15","2013-08-22","2013-08-15","2013-08-19",,"2013-08-22T14:55",,,"714","1932-08-11",81,"YEARS","M","WHITE","NOT HISPANIC OR LATINO","Xan_Hi","Xanomeline High Dose","Xan_Lo","Xanomeline Low Dose","USA","2013-08-11",-4,,,"Xanomeline High Dose","Xanomeline Low Dose",2013-08-15,"H",2013-08-19,"H",2013-08-15,2013-08-19,"Y",2013-08-22,"DISCONTINUED","STUDY TERMINATED BY SPONSOR","SPONSOR DECISION (STUDY OR PATIENT DISCONTINUED BY THE SPONSOR)",2013-08-15,1932-08-11,81,"YEARS",">50",3,,"Y",2013-08-22,44,"VS"
"CDISCPILOT01","01-715-1085","1085","2013-02-16","2013-08-18","2013-02-16","2013-08-18",,"2013-08-18T10:22",,,"715","1936-02-03",77,"YEARS","F","WHITE","NOT HISPANIC OR LATINO","Xan_Lo","Xanomeline Low Dose","Xan_Lo","Xanomeline Low Dose","USA","2013-02-03",-13,,,"Xanomeline Low Dose","Xanomeline Low Dose",2013-02-16,"H",2013-08-18,"H",2013-02-16,2013-08-18,"Y",2013-08-18,"COMPLETED",,,2013-02-16,1936-02-03,77,"YEARS",">50",3,,"Y",2013-08-18,,"ADSL"
"CDISCPILOT01","01-715-1107","1107","2013-02-26","2013-05-13","2013-02-26","2013-05-07",,"2013-08-14T09:52",,,"715","1948-02-12",65,"YEARS","M","WHITE","NOT HISPANIC OR LATINO","Xan_Lo","Xanomeline Low Dose","Xan_Lo","Xanomeline Low Dose","USA","2013-02-12",-14,,,"Xanomeline Low Dose","Xanomeline Low Dose",2013-02-26,"H",2013-05-07,"H",2013-02-26,2013-05-07,"Y",2013-05-13,"DISCONTINUED","ADVERSE EVENT","ADVERSE EVENT",2013-02-26,1948-02-12,65,"YEARS",">50",3,,"Y",2013-08-14,111,"VS"
"CDISCPILOT01","01-715-1134","1134",,,,,,"2014-05-21",,,"715","1964-04-17",50,"YEARS","F","WHITE","NOT HISPANIC OR LATINO","Scrnfail","Screen Failure","Scrnfail","Screen Failure","USA","2014-04-17",,"SCREEN FAILURE",,"Screen Failure","Screen Failure",,,,,,,"Y",,,,,,1964-04-17,,,"18 - 50",2,,"N",2014-04-17,1,"DS"
"CDISCPILOT01","01-715-1155","1155","2013-12-13","2014-04-26","2013-12-13","2014-01-25",,"2014-04-26",,,"715","1954-11-29",59,"YEARS","F","WHITE","NOT HISPANIC OR LATINO","Pbo","Placebo","Pbo","Placebo","USA","2013-11-29",-14,,,"Placebo","Placebo",2013-12-13,"H",2014-01-25,"H",2013-12-13,2014-01-25,"Y",2014-04-26,"DISCONTINUED","WITHDRAWAL BY SUBJECT","CAREGIVER WITHDREW FROM STUDY",2013-12-13,1954-11-29,59,"YEARS",">50",3,,"Y",2014-04-26,3,"DS"
"CDISCPILOT01","01-715-1207","1207","2012-11-18","2013-06-01","2012-11-18","2013-05-27",,"2013-06-01T09:30",,,"715","1934-11-12",78,"YEARS","F","WHITE","NOT HISPANIC OR LATINO","Pbo","Placebo","Pbo","Placebo","USA","2012-11-12",-6,,,"Placebo","Placebo",2012-11-18,"H",2013-05-27,"H",2012-11-18,2013-05-27,"Y",2013-06-01,"COMPLETED",,,2012-11-18,1934-11-12,78,"YEARS",">50",3,,"Y",2013-06-01,152,"VS"
"CDISCPILOT01","01-715-1225","1225",,,,,,"2013-05-07",,,"715","1936-01-22",77,"YEARS","F","WHITE","NOT HISPANIC OR LATINO","Scrnfail","Screen Failure","Scrnfail","Screen Failure","USA","2013-01-22",,"SCREEN FAILURE",,"Screen Failure","Screen Failure",,,,,,,"Y",,,,,,1936-01-22,,,">50",3,,"N",2013-01-22,1,"DS"
"CDISCPILOT01","01-715-1319","1319","2013-02-17","2013-03-18","2013-02-17","2013-03-05",,"2013-03-18T10:28",,,"715","1948-02-03",65,"YEARS","M","WHITE","NOT HISPANIC OR LATINO","Xan_Hi","Xanomeline High Dose","Xan_Hi","Xanomeline High Dose","USA","2013-02-03",-14,,,"Xanomeline High Dose","Xanomeline High Dose",2013-02-17,"H",2013-03-05,"H",2013-02-17,2013-03-05,"Y",2013-03-18,"DISCONTINUED","WITHDRAWAL BY SUBJECT","TOO MUCH TROUBLE FOR CAREGIVER",2013-02-17,1948-02-03,65,"YEARS",">50",3,,"Y",2013-03-18,65,"VS"
"CDISCPILOT01","01-715-1321","1321","2014-02-11","2014-04-22","2014-02-11","2014-04-21",,"2014-04-22T11:12",,,"715","1939-02-06",75,"YEARS","F","WHITE","NOT HISPANIC OR LATINO","Xan_Hi","Xanomeline High Dose","Xan_Hi","Xanomeline High Dose","USA","2014-02-06",-5,,,"Xanomeline High Dose","Xanomeline High Dose",2014-02-11,"H",2014-04-21,"H",2014-02-11,2014-04-21,"Y",2014-04-22,"DISCONTINUED","ADVERSE EVENT","ADVERSE EVENT",2014-02-11,1939-02-06,75,"YEARS",">50",3,,"Y",2014-04-22,108,"VS"
"CDISCPILOT01","01-715-1333","1333",,,,,,"2013-11-03",,,"715","1938-06-03",75,"YEARS","F","WHITE","NOT HISPANIC OR LATINO","Scrnfail","Screen Failure","Scrnfail","Screen Failure","USA","2013-06-03",,"SCREEN FAILURE",,"Screen Failure","Screen Failure",,,,,,,"Y",,,,,,1938-06-03,,,">50",3,,"N",2013-06-03,1,"DS"
"CDISCPILOT01","01-715-1397","1397","2013-04-03","2013-10-03","2013-04-03","2013-10-02",,"2013-10-03T10:50",,,"715","1937-03-20",76,"YEARS","F","WHITE","NOT HISPANIC OR LATINO","Pbo","Placebo","Pbo","Placebo","USA","2013-03-20",-14,,,"Placebo","Placebo",2013-04-03,"H",2013-10-02,"H",2013-04-03,2013-10-02,"Y",2013-10-03,"COMPLETED",,,2013-04-03,1937-03-20,76,"YEARS",">50",3,,"Y",2013-10-03,152,"VS"
"CDISCPILOT01","01-715-1405","1405","2013-07-06","2013-07-13","2013-07-06","2013-07-07",,"2014-01-11",,,"715","1944-06-27",69,"YEARS","M","WHITE","NOT HISPANIC OR LATINO","Xan_Lo","Xanomeline Low Dose","Xan_Lo","Xanomeline Low Dose","USA","2013-06-27",-9,,,"Xanomeline Low Dose","Xanomeline Low Dose",2013-07-06,"H",2013-07-07,"H",2013-07-06,2013-07-07,"Y",2013-07-13,"DISCONTINUED","ADVERSE EVENT","ADVERSE EVENT",2013-07-06,1944-06-27,69,"YEARS",">50",3,,"Y",2014-01-11,51,"VS"
"CDISCPILOT01","01-715-1407","1407",,,,,,"2013-02-07",,,"715","1939-10-24",73,"YEARS","F","WHITE","NOT HISPANIC OR LATINO","Scrnfail","Screen Failure","Scrnfail","Screen Failure","USA","2012-10-24",,"SCREEN FAILURE",,"Screen Failure","Screen Failure",,,,,,,"Y",,,,,,1939-10-24,,,">50",3,,"N",2012-10-24,1,"DS"
"CDISCPILOT01","01-716-1003","1003",,,,,,"2014-03-29",,,"716","1935-03-29",79,"YEARS","M","WHITE","HISPANIC OR LATINO","Scrnfail","Screen Failure","Scrnfail","Screen Failure","USA","2014-03-29",,"SCREEN FAILURE",,"Screen Failure","Screen Failure",,,,,,,"Y",,,,,,1935-03-29,,,">50",3,,"N",2014-03-29,1,"DS"
"CDISCPILOT01","01-716-1024","1024","2012-07-09","2013-01-20","2012-07-09","2013-01-20",,"2013-01-20T11:10",,,"716","1925-07-06",87,"YEARS","F","WHITE","NOT HISPANIC OR LATINO","Pbo","Placebo","Pbo","Placebo","USA","2012-07-06",-3,,,"Placebo","Placebo",2012-07-09,"H",2013-01-20,"H",2012-07-09,2013-01-20,"Y",2013-01-20,"COMPLETED",,,2012-07-09,1925-07-06,87,"YEARS",">50",3,,"Y",2013-01-20,,"ADSL"
"CDISCPILOT01","01-716-1026","1026","2014-04-02","2014-10-16","2014-04-02","2014-10-16",,"2014-10-16T13:35",,,"716","1941-03-23",73,"YEARS","F","WHITE","NOT HISPANIC OR LATINO","Pbo","Placebo","Pbo","Placebo","USA","2014-03-23",-10,,,"Placebo","Placebo",2014-04-02,"H",2014-10-16,"H",2014-04-02,2014-10-16,"Y",2014-10-16,"COMPLETED",,,2014-04-02,1941-03-23,73,"YEARS",">50",3,,"Y",2014-10-16,,"ADSL"
"CDISCPILOT01","01-716-1030","1030","2013-12-28","2014-01-10","2013-12-28","2014-01-02",,"2014-01-10T12:30",,,"716","1930-12-25",83,"YEARS","F","WHITE","NOT HISPANIC OR LATINO","Xan_Hi","Xanomeline High Dose","Xan_Lo","Xanomeline Low Dose","USA","2013-12-25",-3,,,"Xanomeline High Dose","Xanomeline Low Dose",2013-12-28,"H",2014-01-02,"H",2013-12-28,2014-01-02,"Y",2014-01-10,"DISCONTINUED","WITHDRAWAL BY SUBJECT","PT KEPT REMOVING PATCHES",2013-12-28,1930-12-25,83,"YEARS",">50",3,,"Y",2014-01-10,44,"VS"
"CDISCPILOT01","01-716-1044","1044","2013-04-27","2013-11-03","2013-04-27","2013-11-03",,"2013-11-03T13:10",,,"716","1939-04-20",74,"YEARS","M","WHITE","NOT HISPANIC OR LATINO","Pbo","Placebo","Pbo","Placebo","USA","2013-04-20",-7,,,"Placebo","Placebo",2013-04-27,"H",2013-11-03,"H",2013-04-27,2013-11-03,"Y",2013-11-03,"COMPLETED",,,2013-04-27,1939-04-20,74,"YEARS",">50",3,,"Y",2013-11-03,,"ADSL"
"CDISCPILOT01","01-716-1061","1061",,,,,,"2014-02-14",,,"716","1933-02-14",81,"YEARS","M","WHITE","NOT HISPANIC OR LATINO","Scrnfail","Screen Failure","Scrnfail","Screen Failure","USA","2014-02-14",,"SCREEN FAILURE",,"Screen Failure","Screen Failure",,,,,,,"Y",,,,,,1933-02-14,,,">50",3,,"N",2014-02-14,1,"DS"
"CDISCPILOT01","01-716-1063","1063","2013-05-09","2013-08-28","2013-05-09","2013-08-25",,"2013-11-17",,,"716","1933-05-06",80,"YEARS","M","WHITE","NOT HISPANIC OR LATINO","Xan_Lo","Xanomeline Low Dose","Xan_Lo","Xanomeline Low Dose","USA","2013-05-06",-3,,,"Xanomeline Low Dose","Xanomeline Low Dose",2013-05-09,"H",2013-08-25,"H",2013-05-09,2013-08-25,"Y",2013-08-28,"DISCONTINUED","ADVERSE EVENT","ADVERSE EVENT",2013-05-09,1933-05-06,80,"YEARS",">50",3,,"Y",2013-11-17,121,"VS"
"CDISCPILOT01","01-716-1071","1071","2013-06-08","2013-08-01","2013-06-08","2013-08-01",,"2013-12-16",,,"716","1935-06-03",78,"YEARS","F","WHITE","NOT HISPANIC OR LATINO","Xan_Hi","Xanomeline High Dose","Xan_Hi","Xanomeline High Dose","USA","2013-06-03",-5,,,"Xanomeline High Dose","Xanomeline High Dose",2013-06-08,"H",2013-08-01,"H",2013-06-08,2013-08-01,"Y",2013-08-01,"DISCONTINUED","ADVERSE EVENT","ADVERSE EVENT",2013-06-08,1935-06-03,78,"YEARS",">50",3,,"Y",2013-12-16,101,"VS"
"CDISCPILOT01","01-716-1094","1094","2012-12-19","2013-01-26","2012-12-19","2013-01-24",,"2013-06-22",,,"716","1930-12-16",82,"YEARS","M","WHITE","NOT HISPANIC OR LATINO","Xan_Lo","Xanomeline Low Dose","Xan_Lo","Xanomeline Low Dose","USA","2012-12-16",-3,,,"Xanomeline Low Dose","Xanomeline Low Dose",2012-12-19,"H",2013-01-24,"H",2012-12-19,2013-01-24,"Y",2013-01-26,"DISCONTINUED","ADVERSE EVENT","ADVERSE EVENT",2012-12-19,1930-12-16,82,"YEARS",">50",3,,"Y",2013-06-22,91,"VS"
"CDISCPILOT01","01-716-1103","1103","2014-03-20","2014-09-20","2014-03-20","2014-09-20",,"2014-09-20T12:10",,,"716","1935-03-18",79,"YEARS","M","WHITE","NOT HISPANIC OR LATINO","Xan_Lo","Xanomeline Low Dose","Xan_Lo","Xanomeline Low Dose","USA","2014-03-18",-2,,,"Xanomeline Low Dose","Xanomeline Low Dose",2014-03-20,"H",2014-09-20,"H",2014-03-20,2014-09-20,"Y",2014-09-20,"COMPLETED",,,2014-03-20,1935-03-18,79,"YEARS",">50",3,,"Y",2014-09-20,,"ADSL"
"CDISCPILOT01","01-716-1108","1108","2013-02-12","2013-08-10","2013-02-12","2013-08-10",,"2013-08-10T09:55",,,"716","1927-02-04",86,"YEARS","F","WHITE","NOT HISPANIC OR LATINO","Pbo","Placebo","Pbo","Placebo","USA","2013-02-04",-8,,,"Placebo","Placebo",2013-02-12,"H",2013-08-10,"H",2013-02-12,2013-08-10,"Y",2013-08-10,"COMPLETED",,,2013-02-12,1927-02-04,86,"YEARS",">50",3,,"Y",2013-08-10,,"ADSL"
"CDISCPILOT01","01-716-1151","1151","2013-02-01","2013-06-07","2013-02-01","2013-05-11",,"2013-08-13",,,"716","1930-01-23",83,"YEARS","F","WHITE","NOT HISPANIC OR LATINO","Xan_Lo","Xanomeline Low Dose","Xan_Lo","Xanomeline Low Dose","USA","2013-01-23",-9,,,"Xanomeline Low Dose","Xanomeline Low Dose",2013-02-01,"H",2013-05-11,"H",2013-02-01,2013-05-11,"Y",2013-06-07,"DISCONTINUED","ADVERSE EVENT","ADVERSE EVENT",2013-02-01,1930-01-23,83,"YEARS",">50",3,,"Y",2013-08-13,121,"VS"
"CDISCPILOT01","01-716-1157","1157","2013-10-02","2014-04-05","2013-10-02","2014-04-04",,"2014-04-05T11:10",,,"716","1928-09-23",85,"YEARS","M","WHITE","NOT HISPANIC OR LATINO","Xan_Lo","Xanomeline Low Dose","Xan_Lo","Xanomeline Low Dose","USA","2013-09-23",-9,,,"Xanomeline Low Dose","Xanomeline Low Dose",2013-10-02,"H",2014-04-04,"H",2013-10-02,2014-04-04,"Y",2014-04-05,"COMPLETED",,,2013-10-02,1928-09-23,85,"YEARS",">50",3,,"Y",2014-04-05,152,"VS"
"CDISCPILOT01","01-716-1160","1160","2013-04-05","2013-10-11","2013-04-05","2013-10-11",,"2013-10-11T13:30",,,"716","1930-03-23",83,"YEARS","F","WHITE","NOT HISPANIC OR LATINO","Pbo","Placebo","Pbo","Placebo","USA","2013-03-23",-13,,,"Placebo","Placebo",2013-04-05,"H",2013-10-11,"H",2013-04-05,2013-10-11,"Y",2013-10-11,"COMPLETED",,,2013-04-05,1930-03-23,83,"YEARS",">50",3,,"Y",2013-10-11,,"ADSL"
"CDISCPILOT01","01-716-1167","1167","2012-10-08","2013-04-13","2012-10-08","2013-04-12",,"2013-04-13T11:10",,,"716","1944-09-30",68,"YEARS","M","WHITE","NOT HISPANIC OR LATINO","Xan_Lo","Xanomeline Low Dose","Xan_Lo","Xanomeline Low Dose","USA","2012-09-30",-8,,,"Xanomeline Low Dose","Xanomeline Low Dose",2012-10-08,"H",2013-04-12,"H",2012-10-08,2013-04-12,"Y",2013-04-13,"COMPLETED",,,2012-10-08,1944-09-30,68,"YEARS",">50",3,,"Y",2013-04-13,151,"VS"
"CDISCPILOT01","01-716-1177","1177","2014-09-02","2015-03-05","2014-09-02","2015-03-05",,"2015-03-05T14:40",,,"716","1942-08-29",72,"YEARS","M","WHITE","NOT HISPANIC OR LATINO","Pbo","Placebo","Pbo","Placebo","USA","2014-08-29",-4,,,"Placebo","Placebo",2014-09-02,"H",2015-03-05,"H",2014-09-02,2015-03-05,"Y",2015-03-05,"COMPLETED",,,2014-09-02,1942-08-29,72,"YEARS",">50",3,,"Y",2015-03-05,,"ADSL"
"CDISCPILOT01","01-716-1189","1189","2012-10-09","2013-03-03","2012-10-09","2013-02-27",,"2013-04-08",,,"716","1931-10-07",81,"YEARS","M","WHITE","NOT HISPANIC OR LATINO","Xan_Hi","Xanomeline High Dose","Xan_Hi","Xanomeline High Dose","USA","2012-10-07",-2,,,"Xanomeline High Dose","Xanomeline High Dose",2012-10-09,"H",2013-02-27,"H",2012-10-09,2013-02-27,"Y",2013-03-03,"DISCONTINUED","ADVERSE EVENT","ADVERSE EVENT",2012-10-09,1931-10-07,81,"YEARS",">50",3,,"Y",2013-04-08,131,"VS"
"CDISCPILOT01","01-716-1229","1229","2013-02-20","2013-04-02","2013-02-20","2013-03-31",,"2013-04-02T11:15",,,"716","1940-02-14",73,"YEARS","F","WHITE","NOT HISPANIC OR LATINO","Xan_Hi","Xanomeline High Dose","Xan_Hi","Xanomeline High Dose","USA","2013-02-14",-6,,,"Xanomeline High Dose","Xanomeline High Dose",2013-02-20,"H",2013-03-31,"H",2013-02-20,2013-03-31,"Y",2013-04-02,"DISCONTINUED","ADVERSE EVENT","ADVERSE EVENT",2013-02-20,1940-02-14,73,"YEARS",">50",3,,"Y",2013-04-02,86,"VS"
"CDISCPILOT01","01-716-1244","1244",,,,,,"2013-09-03",,,"716","1941-08-15",72,"YEARS","F","WHITE","NOT HISPANIC OR LATINO","Scrnfail","Screen Failure","Scrnfail","Screen Failure","USA","2013-08-15",,"SCREEN FAILURE",,"Screen Failure","Screen Failure",,,,,,,"Y",,,,,,1941-08-15,,,">50",3,,"N",2013-08-15,1,"DS"
"CDISCPILOT01","01-716-1298","1298","2013-04-08","2013-07-06","2013-04-08","2013-06-28",,"2013-10-07",,,"716","1937-04-04",76,"YEARS","F","WHITE","NOT HISPANIC OR LATINO","Xan_Lo","Xanomeline Low Dose","Xan_Lo","Xanomeline Low Dose","USA","2013-04-04",-4,,,"Xanomeline Low Dose","Xanomeline Low Dose",2013-04-08,"H",2013-06-28,"H",2013-04-08,2013-06-28,"Y",2013-07-06,"DISCONTINUED","ADVERSE EVENT","ADVERSE EVENT",2013-04-08,1937-04-04,76,"YEARS",">50",3,,"Y",2013-10-07,91,"VS"
"CDISCPILOT01","01-716-1305","1305",,,,,,"2013-08-28",,,"716","1940-08-06",73,"YEARS","F","WHITE","NOT HISPANIC OR LATINO","Scrnfail","Screen Failure","Scrnfail","Screen Failure","USA","2013-08-06",,"SCREEN FAILURE",,"Screen Failure","Screen Failure",,,,,,,"Y",,,,,,1940-08-06,,,">50",3,,"N",2013-08-06,1,"DS"
"CDISCPILOT01","01-716-1308","1308","2013-08-28","2013-10-07","2013-08-28","2013-10-07",,"2013-10-07T15:50",,,"716","1937-08-23",76,"YEARS","F","WHITE","NOT HISPANIC OR LATINO","Pbo","Placebo","Pbo","Placebo","USA","2013-08-23",-5,,,"Placebo","Placebo",2013-08-28,"H",2013-10-07,"H",2013-08-28,2013-10-07,"Y",2013-10-07,"DISCONTINUED","WITHDRAWAL BY SUBJECT","PLACED IN NURSING HOME",2013-08-28,1937-08-23,76,"YEARS",">50",3,,"Y",2013-10-07,,"ADSL"
"CDISCPILOT01","01-716-1311","1311","2014-05-14","2014-09-30","2014-05-14","2014-09-21",,"2014-11-15",,,"716","1936-05-08",78,"YEARS","M","WHITE","NOT HISPANIC OR LATINO","Xan_Lo","Xanomeline Low Dose","Xan_Lo","Xanomeline Low Dose","USA","2014-05-08",-6,,,"Xanomeline Low Dose","Xanomeline Low Dose",2014-05-14,"H",2014-09-21,"H",2014-05-14,2014-09-21,"Y",2014-09-30,"DISCONTINUED","WITHDRAWAL BY SUBJECT","INSTITUTIONALIZED",2014-05-14,1936-05-08,78,"YEARS",">50",3,,"Y",2014-11-15,101,"VS"
"CDISCPILOT01","01-716-1331","1331",,,,,,"2013-11-25",,,"716","1954-11-25",59,"YEARS","F","WHITE","NOT HISPANIC OR LATINO","Scrnfail","Screen Failure","Scrnfail","Screen Failure","USA","2013-11-25",,"SCREEN FAILURE",,"Screen Failure","Screen Failure",,,,,,,"Y",,,,,,1954-11-25,,,">50",3,,"N",2013-11-25,1,"DS"
"CDISCPILOT01","01-716-1364","1364","2013-07-04","2014-01-09","2013-07-04","2014-01-09",,"2014-01-09T15:30",,,"716","1929-06-27",84,"YEARS","F","WHITE","NOT HISPANIC OR LATINO","Xan_Hi","Xanomeline High Dose","Xan_Hi","Xanomeline High Dose","USA","2013-06-27",-7,,,"Xanomeline High Dose","Xanomeline High Dose",2013-07-04,"H",2014-01-09,"H",2013-07-04,2014-01-09,"Y",2014-01-09,"COMPLETED",,,2013-07-04,1929-06-27,84,"YEARS",">50",3,,"Y",2014-01-09,,"ADSL"
"CDISCPILOT01","01-716-1373","1373","2012-12-14","2013-02-28","2012-12-14","2013-02-27",,"2013-02-28T10:23",,,"716","1938-11-24",74,"YEARS","M","WHITE","NOT HISPANIC OR LATINO","Xan_Hi","Xanomeline High Dose","Xan_Hi","Xanomeline High Dose","USA","2012-11-24",-20,,,"Xanomeline High Dose","Xanomeline High Dose",2012-12-14,"H",2013-02-27,"H",2012-12-14,2013-02-27,"Y",2013-02-28,"DISCONTINUED","ADVERSE EVENT","ADVERSE EVENT",2012-12-14,1938-11-24,74,"YEARS",">50",3,,"Y",2013-02-28,108,"VS"
"CDISCPILOT01","01-716-1418","1418","2013-05-05","2013-11-20","2013-05-05","2013-11-20",,"2013-11-20T11:44",,,"716","1933-04-27",80,"YEARS","F","WHITE","NOT HISPANIC OR LATINO","Xan_Hi","Xanomeline High Dose","Xan_Hi","Xanomeline High Dose","USA","2013-04-27",-8,,,"Xanomeline High Dose","Xanomeline High Dose",2013-05-05,"H",2013-11-20,"H",2013-05-05,2013-11-20,"Y",2013-11-20,"COMPLETED",,,2013-05-05,1933-04-27,80,"YEARS",">50",3,,"Y",2013-11-20,,"ADSL"
"CDISCPILOT01","01-716-1441","1441","2014-01-22","2014-07-22","2014-01-22","2014-07-22",,"2014-07-22T10:00",,,"716","1929-01-13",85,"YEARS","M","WHITE","NOT HISPANIC OR LATINO","Pbo","Placebo","Pbo","Placebo","USA","2014-01-13",-9,,,"Placebo","Placebo",2014-01-22,"H",2014-07-22,"H",2014-01-22,2014-07-22,"Y",2014-07-22,"COMPLETED",,,2014-01-22,1929-01-13,85,"YEARS",">50",3,,"Y",2014-07-22,,"ADSL"
"CDISCPILOT01","01-716-1447","1447","2013-12-16","2014-06-17","2013-12-16","2014-06-17",,"2014-06-17T12:00",,,"716","1941-12-10",72,"YEARS","F","WHITE","NOT HISPANIC OR LATINO","Xan_Hi","Xanomeline High Dose","Xan_Hi","Xanomeline High Dose","USA","2013-12-10",-6,,,"Xanomeline High Dose","Xanomeline High Dose",2013-12-16,"H",2014-06-17,"H",2013-12-16,2014-06-17,"Y",2014-06-17,"COMPLETED",,,2013-12-16,1941-12-10,72,"YEARS",">50",3,,"Y",2014-06-17,,"ADSL"
"CDISCPILOT01","01-717-1004","1004","2014-01-14","2014-07-16","2014-01-14","2014-07-16",,"2014-07-16T13:21",,,"717","1934-01-01",80,"YEARS","F","WHITE","NOT HISPANIC OR LATINO","Xan_Lo","Xanomeline Low Dose","Xan_Lo","Xanomeline Low Dose","USA","2014-01-01",-13,,,"Xanomeline Low Dose","Xanomeline Low Dose",2014-01-14,"H",2014-07-16,"H",2014-01-14,2014-07-16,"Y",2014-07-16,"COMPLETED",,,2014-01-14,1934-01-01,80,"YEARS",">50",3,,"Y",2014-07-16,,"ADSL"
"CDISCPILOT01","01-717-1109","1109","2014-01-27","2014-07-28","2014-01-27","2014-07-28",,"2014-07-28T10:53",,,"717","1930-01-20",84,"YEARS","M","WHITE","NOT HISPANIC OR LATINO","Xan_Hi","Xanomeline High Dose","Xan_Hi","Xanomeline High Dose","USA","2014-01-20",-7,,,"Xanomeline High Dose","Xanomeline High Dose",2014-01-27,"H",2014-07-28,"H",2014-01-27,2014-07-28,"Y",2014-07-28,"COMPLETED",,,2014-01-27,1930-01-20,84,"YEARS",">50",3,,"Y",2014-07-28,,"ADSL"
"CDISCPILOT01","01-717-1174","1174","2013-01-22","2013-07-24","2013-01-22","2013-07-24",,"2013-07-24T15:15",,,"717","1940-01-16",73,"YEARS","M","WHITE","NOT HISPANIC OR LATINO","Xan_Hi","Xanomeline High Dose","Xan_Hi","Xanomeline High Dose","USA","2013-01-16",-6,,,"Xanomeline High Dose","Xanomeline High Dose",2013-01-22,"H",2013-07-24,"H",2013-01-22,2013-07-24,"Y",2013-07-24,"COMPLETED",,,2013-01-22,1940-01-16,73,"YEARS",">50",3,,"Y",2013-07-24,,"ADSL"
"CDISCPILOT01","01-717-1201","1201","2013-12-19","2014-02-21","2013-12-19","2014-02-21",,"2014-02-21T11:14",,,"717","1928-12-12",85,"YEARS","F","WHITE","NOT HISPANIC OR LATINO","Pbo","Placebo","Pbo","Placebo","USA","2013-12-12",-7,,,"Placebo","Placebo",2013-12-19,"H",2014-02-21,"H",2013-12-19,2014-02-21,"Y",2014-02-21,"DISCONTINUED","LACK OF EFFICACY","LACK OF EFFICACY, PATIENT CAREGIVER PERCEPTION",2013-12-19,1928-12-12,85,"YEARS",">50",3,,"Y",2014-02-21,,"ADSL"
"CDISCPILOT01","01-717-1344","1344","2014-01-11","2014-03-14","2014-01-11","2014-03-14",,"2014-03-14T14:14",,,"717","1950-01-01",64,"YEARS","F","WHITE","NOT HISPANIC OR LATINO","Pbo","Placebo","Pbo","Placebo","USA","2014-01-01",-10,,,"Placebo","Placebo",2014-01-11,"H",2014-03-14,"H",2014-01-11,2014-03-14,"Y",2014-03-14,"DISCONTINUED","LACK OF EFFICACY","LACK OF EFFICACY, PATIENT CAREGIVER PERCEPTION",2014-01-11,1950-01-01,64,"YEARS",">50",3,,"Y",2014-03-14,,"ADSL"
"CDISCPILOT01","01-717-1357","1357","2013-05-01","2013-10-20","2013-05-01","2013-10-14",,"2013-10-20T10:52",,,"717","1936-04-21",77,"YEARS","M","WHITE","NOT HISPANIC OR LATINO","Xan_Hi","Xanomeline High Dose","Xan_Hi","Xanomeline High Dose","USA","2013-04-21",-10,,,"Xanomeline High Dose","Xanomeline High Dose",2013-05-01,"H",2013-10-14,"H",2013-05-01,2013-10-14,"Y",2013-10-20,"DISCONTINUED","STUDY TERMINATED BY SPONSOR","SPONSOR DECISION (STUDY OR PATIENT DISCONTINUED BY THE SPONSOR)",2013-05-01,1936-04-21,77,"YEARS",">50",3,,"Y",2013-10-20,121,"VS"
"CDISCPILOT01","01-717-1446","1446","2013-09-01","2014-03-04","2013-09-01","2014-03-03",,"2014-03-17T09:52",,,"717","1938-08-20",75,"YEARS","F","WHITE","NOT HISPANIC OR LATINO","Xan_Lo","Xanomeline Low Dose","Xan_Lo","Xanomeline Low Dose","USA","2013-08-20",-12,,,"Xanomeline Low Dose","Xanomeline Low Dose",2013-09-01,"H",2014-03-03,"H",2013-09-01,2014-03-03,"Y",2014-03-04,"COMPLETED",,,2013-09-01,1938-08-20,75,"YEARS",">50",3,,"Y",2014-03-17,3,"DS"
"CDISCPILOT01","01-718-1066","1066","2013-07-07","2013-07-30","2013-07-07","2013-07-16",,"2014-01-13",,,"718","1934-06-28",79,"YEARS","F","WHITE","NOT HISPANIC OR LATINO","Xan_Lo","Xanomeline Low Dose","Xan_Lo","Xanomeline Low Dose","USA","2013-06-28",-9,,,"Xanomeline Low Dose","Xanomeline Low Dose",2013-07-07,"H",2013-07-16,"H",2013-07-07,2013-07-16,"Y",2013-07-30,"DISCONTINUED","ADVERSE EVENT","ADVERSE EVENT",2013-07-07,1934-06-28,79,"YEARS",">50",3,,"Y",2013-07-30,44,"VS"
"CDISCPILOT01","01-718-1079","1079","2012-09-19","2012-11-06","2012-09-19","2012-10-31",,"2013-03-05",,,"718","1945-09-11",67,"YEARS","F","WHITE","NOT HISPANIC OR LATINO","Xan_Lo","Xanomeline Low Dose","Xan_Lo","Xanomeline Low Dose","USA","2012-09-11",-8,,,"Xanomeline Low Dose","Xanomeline Low Dose",2012-09-19,"H",2012-10-31,"H",2012-09-19,2012-10-31,"Y",2012-11-06,"DISCONTINUED","ADVERSE EVENT","ADVERSE EVENT",2012-09-19,1945-09-11,67,"YEARS",">50",3,,"Y",2013-03-05,91,"VS"
"CDISCPILOT01","01-718-1101","1101","2013-02-17","2013-08-02","2013-02-17","2013-07-31",,"2013-08-02T11:30",,,"718","1931-02-01",82,"YEARS","M","BLACK OR AFRICAN AMERICAN","NOT HISPANIC OR LATINO","Xan_Hi","Xanomeline High Dose","Xan_Hi","Xanomeline High Dose","USA","2013-02-01",-16,,,"Xanomeline High Dose","Xanomeline High Dose",2013-02-17,"H",2013-07-31,"H",2013-02-17,2013-07-31,"Y",2013-08-02,"DISCONTINUED","STUDY TERMINATED BY SPONSOR","SPONSOR DECISION (STUDY OR PATIENT DISCONTINUED BY THE SPONSOR)",2013-02-17,1931-02-01,82,"YEARS",">50",3,,"Y",2013-08-02,141,"VS"
"CDISCPILOT01","01-718-1139","1139","2013-05-19","2013-11-17","2013-05-19","2013-11-17",,"2013-11-17T10:30",,,"718","1936-05-03",77,"YEARS","M","WHITE","NOT HISPANIC OR LATINO","Pbo","Placebo","Pbo","Placebo","USA","2013-05-03",-16,,,"Placebo","Placebo",2013-05-19,"H",2013-11-17,"H",2013-05-19,2013-11-17,"Y",2013-11-17,"COMPLETED",,,2013-05-19,1936-05-03,77,"YEARS",">50",3,,"Y",2013-11-17,,"ADSL"
"CDISCPILOT01","01-718-1150","1150","2013-01-19","2013-07-31","2013-01-19","2013-07-29",,"2013-07-31T14:05",,,"718","1940-01-12",73,"YEARS","F","WHITE","NOT HISPANIC OR LATINO","Pbo","Placebo","Pbo","Placebo","USA","2013-01-12",-7,,,"Placebo","Placebo",2013-01-19,"H",2013-07-29,"H",2013-01-19,2013-07-29,"Y",2013-07-31,"COMPLETED",,,2013-01-19,1940-01-12,73,"YEARS",">50",3,,"Y",2013-07-31,130,"VS"
"CDISCPILOT01","01-718-1170","1170","2013-09-16","2013-11-03","2013-09-16","2013-10-12",,"2014-03-15",,,"718","1933-08-25",80,"YEARS","F","WHITE","NOT HISPANIC OR LATINO","Xan_Lo","Xanomeline Low Dose","Xan_Lo","Xanomeline Low Dose","USA","2013-08-25",-22,,,"Xanomeline Low Dose","Xanomeline Low Dose",2013-09-16,"H",2013-10-12,"H",2013-09-16,2013-10-12,"Y",2013-11-03,"DISCONTINUED","ADVERSE EVENT","ADVERSE EVENT",2013-09-16,1933-08-25,80,"YEARS",">50",3,,"Y",2014-03-15,71,"VS"
"CDISCPILOT01","01-718-1172","1172","2013-09-21","2013-11-29","2013-09-21","2013-11-29",,"2014-03-21",,,"718","1939-09-15",74,"YEARS","M","WHITE","NOT HISPANIC OR LATINO","Pbo","Placebo","Pbo","Placebo","USA","2013-09-15",-6,,,"Placebo","Placebo",2013-09-21,"H",2013-11-29,"H",2013-09-21,2013-11-29,"Y",2013-11-29,"DISCONTINUED","WITHDRAWAL BY SUBJECT","PATIENT TO BEGIN COURSE OF ARICEPT",2013-09-21,1939-09-15,74,"YEARS",">50",3,,"Y",2014-03-21,111,"VS"
"CDISCPILOT01","01-718-1250","1250","2013-09-21","2014-02-08","2013-09-21","2014-01-31",,"2014-03-08",,,"718","1931-08-21",82,"YEARS","F","WHITE","HISPANIC OR LATINO","Xan_Lo","Xanomeline Low Dose","Xan_Lo","Xanomeline Low Dose","USA","2013-08-21",-31,,,"Xanomeline Low Dose","Xanomeline Low Dose",2013-09-21,"H",2014-01-31,"H",2013-09-21,2014-01-31,"Y",2014-02-08,"DISCONTINUED","ADVERSE EVENT","ADVERSE EVENT",2013-09-21,1931-08-21,82,"YEARS",">50",3,,"Y",2014-03-08,131,"VS"
"CDISCPILOT01","01-718-1254","1254","2013-07-10","2014-01-09","2013-07-10","2014-01-09",,"2014-01-09T11:10",,,"718","1935-06-28",78,"YEARS","M","WHITE","HISPANIC OR LATINO","Xan_Lo","Xanomeline Low Dose","Xan_Lo","Xanomeline Low Dose","USA","2013-06-28",-12,,,"Xanomeline Low Dose","Xanomeline Low Dose",2013-07-10,"H",2014-01-09,"H",2013-07-10,2014-01-09,"Y",2014-01-09,"COMPLETED",,,2013-07-10,1935-06-28,78,"YEARS",">50",3,,"Y",2014-01-09,,"ADSL"
"CDISCPILOT01","01-718-1328","1328","2013-02-01","2013-05-01","2013-02-01","2013-04-18",,"2013-07-24",,,"718","1927-01-28",86,"YEARS","M","WHITE","NOT HISPANIC OR LATINO","Xan_Hi","Xanomeline High Dose","Xan_Hi","Xanomeline High Dose","USA","2013-01-28",-4,,,"Xanomeline High Dose","Xanomeline High Dose",2013-02-01,"H",2013-04-18,"H",2013-02-01,2013-04-18,"Y",2013-05-01,"DISCONTINUED","WITHDRAWAL BY SUBJECT","PATIENT UNABLE TO TOLERATE DERMAL IRRITATION AT PATCH SITE",2013-02-01,1927-01-28,86,"YEARS",">50",3,,"Y",2013-07-24,101,"VS"
"CDISCPILOT01","01-718-1355","1355","2013-02-28","2013-08-29","2013-02-28","2013-08-29",,"2013-08-29T14:00",,,"718","1934-02-12",79,"YEARS","M","WHITE","NOT HISPANIC OR LATINO","Pbo","Placebo","Pbo","Placebo","USA","2013-02-12",-16,,,"Placebo","Placebo",2013-02-28,"H",2013-08-29,"H",2013-02-28,2013-08-29,"Y",2013-08-29,"COMPLETED",,,2013-02-28,1934-02-12,79,"YEARS",">50",3,,"Y",2013-08-29,,"ADSL"
"CDISCPILOT01","01-718-1371","1371","2013-04-26","2013-08-08","2013-04-26","2013-08-01",,"2013-08-08",,,"718","1944-04-11",69,"YEARS","F","WHITE","NOT HISPANIC OR LATINO","Xan_Hi","Xanomeline High Dose","Xan_Hi","Xanomeline High Dose","USA","2013-04-11",-15,,,"Xanomeline High Dose","Xanomeline High Dose",2013-04-26,"H",2013-08-01,"H",2013-04-26,2013-08-01,"Y",2013-08-08,"DISCONTINUED","ADVERSE EVENT","ADVERSE EVENT",2013-04-26,1944-04-11,69,"YEARS",">50",3,,"Y",2013-08-08,101,"VS"
"CDISCPILOT01","01-718-1427","1427","2012-12-17","2013-02-18","2012-12-17","2013-02-11",,"2013-06-03",,,"718","1938-12-13",74,"YEARS","F","BLACK OR AFRICAN AMERICAN","NOT HISPANIC OR LATINO","Xan_Hi","Xanomeline High Dose","Xan_Hi","Xanomeline High Dose","USA","2012-12-13",-4,,,"Xanomeline High Dose","Xanomeline High Dose",2012-12-17,"H",2013-02-11,"H",2012-12-17,2013-02-11,"Y",2013-02-18,"DISCONTINUED","LACK OF EFFICACY","LACK OF EFFICACY, PATIENT CAREGIVER PERCEPTION",2012-12-17,1938-12-13,74,"YEARS",">50",3,,"Y",2013-06-03,101,"VS"
